participant,event_id,encoding.thisN,theme,object_label,person_label,place_label,resp_encSpace.rt,retrieval.thisN,resp_ret_vividness.keys,resp_ret_vividness.rt,q1_type,q2_type,q3_type,resp_gistmem1.corr,resp_gistmem1.rt,resp_gistmem1.keys,resp_gistmem2.corr,resp_gistmem2.rt,resp_gistmem2.keys,resp_gistmem3.corr,resp_gistmem3.rt,resp_gistmem3.keys,resp_detailmem1.corr,resp_detailmem1.rt,resp_detailmem1.keys,resp_detailmem2.corr,resp_detailmem2.rt,resp_detailmem2.keys,resp_detailmem3.corr,resp_detailmem3.rt,resp_detailmem3.keys,familiarity.thisN,resp_facefam.keys,resp_facefam.rt
104,11.0,0.0,Friends,Ladder,Sandra,Waterfall,10.190515,19.0,3.0,1.501695,person,object,place,1.0,1.42098,3.0,0.0,0.552295,2.0,0.0,0.693695,2.0,1.0,0.49968,1.0,1.0,0.60375,2.0,0.0,0.424525,2.0,7.0,1.0,0.20234000000000002
104,1.0,1.0,Celebration,Trampoline,Will,Icerink,6.158525,0.0,3.0,2.359275,person,object,place,1.0,1.18798,2.0,0.0,0.85136,3.0,0.0,1.234285,3.0,0.0,1.071685,2.0,1.0,2.75398,2.0,1.0,1.03508,1.0,21.0,1.0,0.22515500000000002
104,5.0,2.0,Shopping,Record,Brad,Harbor,5.368735,13.0,2.0,0.849765,place,person,object,0.0,0.48663500000000004,3.0,0.0,0.335235,3.0,0.0,0.63442,3.0,1.0,0.402995,2.0,0.0,0.376085,2.0,1.0,1.461235,2.0,6.0,1.0,0.07449
104,4.0,3.0,Art,Binoculars,Ryan,Lake,1.36792,17.0,2.0,0.968735,object,place,person,1.0,1.488815,3.0,0.0,1.32195,4.0,0.0,0.31672,4.0,0.0,0.98414,2.0,0.0,0.45193999999999995,2.0,1.0,0.51967,1.0,0.0,1.0,3.2836
104,22.0,4.0,Competition,Chair,Adam,Kitchen,6.31752,23.0,2.0,1.768635,object,person,place,0.0,0.66089,2.0,0.0,0.671355,2.0,1.0,0.70553,3.0,1.0,0.5616399999999999,1.0,0.0,0.373715,2.0,0.0,0.42594,1.0,8.0,1.0,0.24546500000000002
104,9.0,5.0,Travel,Gloves,Jennifer,Studio,7.107614999999999,4.0,2.0,1.44343,object,place,person,0.0,0.9711799999999999,3.0,0.0,0.5768949999999999,3.0,0.0,1.3856899999999999,3.0,0.0,0.751085,1.0,1.0,0.6904399999999999,2.0,0.0,1.424135,2.0,19.0,1.0,0.222295
104,13.0,6.0,Summer,Jug,Julia,Pool,7.75081,5.0,3.0,1.4182649999999999,person,object,place,0.0,1.09507,2.0,0.0,0.645025,2.0,0.0,0.6354449999999999,1.0,1.0,1.00112,2.0,1.0,1.60033,2.0,1.0,1.2637399999999999,2.0,12.0,1.0,0.041569999999999996
104,21.0,7.0,Music,Beachball,Leonardo,Savannah,12.647965,11.0,2.0,1.1176700000000002,place,object,person,1.0,1.120365,3.0,0.0,0.485055,3.0,1.0,0.418505,3.0,1.0,0.3917,2.0,1.0,0.80219,2.0,1.0,0.53366,2.0,22.0,1.0,0.25258
104,15.0,8.0,Errands,Hammock,Emily,Bridge,13.07007,16.0,1.0,1.093575,object,place,person,0.0,1.11812,2.0,0.0,0.5867,3.0,0.0,0.035095,1.0,1.0,0.844565,1.0,1.0,0.5700149999999999,2.0,1.0,0.322845,1.0,15.0,1.0,0.13833499999999999
104,8.0,9.0,DIY,Headphones,Meryl,Ski Slope,10.599015,22.0,2.0,0.500475,object,person,place,1.0,0.672545,2.0,1.0,0.579335,3.0,1.0,0.640105,3.0,0.0,0.534725,2.0,0.0,0.41923999999999995,2.0,1.0,0.6932149999999999,2.0,17.0,1.0,0.7348399999999999
104,16.0,10.0,Volunteer,Easel,Steve,Aquarium,6.29934,15.0,1.0,1.235155,object,person,place,0.0,0.5005350000000001,1.0,1.0,1.120225,3.0,0.0,0.49089499999999997,3.0,0.0,1.357915,1.0,0.0,0.878445,2.0,0.0,0.80032,1.0,1.0,1.0,0.65485
104,3.0,11.0,Games,Bike,George,Wine Cellar,4.4002099999999995,20.0,4.0,2.26533,person,object,place,1.0,0.67392,2.0,1.0,0.484655,2.0,0.0,0.44096,3.0,0.0,0.9724149999999999,2.0,1.0,0.35932,2.0,1.0,0.35157,2.0,2.0,1.0,0.373125
104,19.0,12.0,Relaxing,Backpack,Robert,Lighthouse,3.74126,9.0,1.0,0.8509700000000001,place,object,person,0.0,0.49090500000000004,2.0,0.0,0.50152,3.0,1.0,0.9347700000000001,3.0,0.0,1.13574,2.0,0.0,0.5221399999999999,2.0,0.0,0.657655,1.0,18.0,1.0,0.17893
104,20.0,13.0,Exercise,Extinguisher,Denzel,Field,11.854985000000001,7.0,2.0,0.43522,person,place,object,1.0,1.2167700000000001,1.0,0.0,0.643425,1.0,0.0,1.3184049999999998,3.0,1.0,1.088755,2.0,1.0,0.6887949999999999,2.0,0.0,0.5388350000000001,1.0,23.0,1.0,0.000875
104,2.0,14.0,Studying,Duster,Chris,Classroom,4.100280000000001,12.0,3.0,2.0368049999999998,place,object,person,0.0,1.9568599999999998,3.0,0.0,0.503405,3.0,1.0,0.36804000000000003,3.0,1.0,0.40783,2.0,1.0,0.40114,2.0,1.0,0.9563799999999999,2.0,16.0,1.0,0.35163
104,6.0,15.0,Family,Stopwatch,Tom,Basketball,5.7340800000000005,10.0,3.0,1.04045,object,place,person,0.0,0.7345,3.0,0.0,0.5922,2.0,0.0,0.601675,3.0,0.0,1.253305,2.0,1.0,1.046635,1.0,0.0,0.407915,1.0,20.0,1.0,0.618975
104,12.0,16.0,Winter,Computer,Angelina,Restaurant,,14.0,3.0,1.8259849999999997,object,person,place,0.0,0.525165,3.0,1.0,0.75855,3.0,0.0,1.63495,4.0,0.0,0.818445,2.0,0.0,0.451345,2.0,1.0,0.535305,2.0,3.0,1.0,0.251135
104,18.0,17.0,Work,Flowers,Beyonce,Cabin,4.485225,18.0,1.0,0.8189649999999999,place,object,person,0.0,0.890785,2.0,0.0,0.72137,2.0,0.0,0.68763,3.0,0.0,1.069025,2.0,1.0,0.757065,2.0,0.0,0.43261499999999997,2.0,4.0,1.0,0.719325
104,24.0,18.0,Eating,Stroller,Halle,Circus,8.09694,8.0,1.0,0.79162,person,place,object,1.0,1.087895,1.0,0.0,0.45238999999999996,2.0,1.0,0.453085,2.0,0.0,0.7845,2.0,1.0,0.6828850000000001,2.0,0.0,0.45578,1.0,10.0,1.0,0.19500499999999998
104,14.0,19.0,Vacation,Satchel,Reese,Bowling,9.64869,21.0,2.0,0.70104,place,person,object,0.0,0.61805,1.0,1.0,0.424005,1.0,0.0,1.7995150000000002,3.0,0.0,0.40223000000000003,2.0,0.0,0.37165,2.0,1.0,0.56196,2.0,9.0,1.0,0.813685
104,10.0,20.0,Sightseeing,Wine,Samuel,Beach,7.949265,3.0,3.0,1.605465,person,place,object,0.0,1.67013,4.0,0.0,2.19506,1.0,1.0,0.8746299999999999,2.0,0.0,1.135915,2.0,1.0,0.625085,2.0,0.0,0.8394149999999999,1.0,5.0,1.0,0.202455
104,7.0,21.0,Date,Football,Nicole,Dining Room,5.559325,1.0,1.0,1.93019,place,person,object,0.0,2.00055,2.0,0.0,0.959995,2.0,0.0,1.774935,2.0,1.0,0.83772,1.0,0.0,1.5568,1.0,0.0,0.884705,1.0,14.0,1.0,0.18528499999999998
104,17.0,22.0,Home,Goggles,Mindy,Casino,6.650164999999999,6.0,3.0,1.61752,person,place,object,0.0,0.884235,2.0,1.0,0.8363649999999999,2.0,0.0,0.66756,1.0,0.0,1.02559,2.0,0.0,0.6854399999999999,1.0,0.0,0.706575,2.0,13.0,1.0,1.1679
104,23.0,23.0,Party,Puppy,Ellen,Avenue,5.603655000000001,2.0,2.0,1.401165,place,person,object,1.0,1.95669,1.0,1.0,1.085435,3.0,0.0,0.8556799999999999,3.0,1.0,2.0226599999999997,2.0,1.0,1.6114,1.0,1.0,0.721,1.0,11.0,1.0,0.125325
