participant,event_id,encoding.thisN,theme,object_label,person_label,place_label,resp_encSpace.rt,retrieval.thisN,resp_ret_vividness.keys,resp_ret_vividness.rt,q1_type,q2_type,q3_type,resp_gistmem1.corr,resp_gistmem1.rt,resp_gistmem1.keys,resp_gistmem2.corr,resp_gistmem2.rt,resp_gistmem2.keys,resp_gistmem3.corr,resp_gistmem3.rt,resp_gistmem3.keys,resp_detailmem1.corr,resp_detailmem1.rt,resp_detailmem1.keys,resp_detailmem2.corr,resp_detailmem2.rt,resp_detailmem2.keys,resp_detailmem3.corr,resp_detailmem3.rt,resp_detailmem3.keys,familiarity.thisN,resp_facefam.keys,resp_facefam.rt
111,6.0,0.0,Family,Stopwatch,Tom,Basketball,13.434870000000002,0.0,2.0,3.3517900000000003,object,place,person,1.0,3.83871,4.0,1.0,2.15025,4.0,1.0,2.517745,1.0,1.0,1.15159,1.0,1.0,2.09207,1.0,1.0,2.769095,2.0,16.0,1.0,0.36999499999999996
111,9.0,1.0,Travel,Gloves,Jennifer,Studio,7.507785,15.0,2.0,1.6004,object,place,person,0.0,3.67194,3.0,0.0,1.50006,3.0,1.0,2.334535,2.0,0.0,1.40683,1.0,0.0,2.3384400000000003,1.0,1.0,1.47129,1.0,22.0,1.0,0.27163000000000004
111,24.0,2.0,Eating,Stroller,Halle,Circus,13.70568,17.0,2.0,0.8149850000000001,person,place,object,0.0,2.439595,3.0,0.0,2.306175,4.0,1.0,1.51548,2.0,1.0,1.8365150000000001,1.0,1.0,1.300475,2.0,0.0,0.850685,1.0,0.0,1.0,1.7538599999999998
111,2.0,3.0,Studying,Duster,Chris,Classroom,7.10367,3.0,3.0,1.871255,place,object,person,1.0,2.0207650000000004,1.0,1.0,1.0555649999999999,1.0,1.0,4.43341,3.0,0.0,1.73223,1.0,1.0,1.37133,2.0,1.0,1.601115,2.0,7.0,1.0,0.7049
111,16.0,4.0,Volunteer,Easel,Steve,Aquarium,8.685315,13.0,2.0,1.203335,object,person,place,1.0,3.8363300000000002,4.0,1.0,1.4235,3.0,1.0,1.224115,2.0,1.0,1.11873,2.0,1.0,0.983455,1.0,1.0,1.383845,2.0,14.0,1.0,0.62802
111,11.0,5.0,Friends,Ladder,Sandra,Waterfall,11.029025,7.0,3.0,1.467285,person,object,place,0.0,2.785455,2.0,1.0,5.51657,4.0,1.0,1.04312,4.0,0.0,2.000465,2.0,0.0,0.9009149999999999,1.0,1.0,0.8818600000000001,1.0,11.0,1.0,0.24993
111,15.0,6.0,Errands,Hammock,Emily,Bridge,10.217315,5.0,3.0,1.7992650000000001,object,place,person,1.0,2.385195,1.0,1.0,1.1185399999999999,2.0,1.0,2.207,2.0,1.0,1.33459,1.0,0.0,0.717595,1.0,0.0,2.733055,2.0,12.0,3.0,1.367305
111,18.0,7.0,Work,Flowers,Beyonce,Cabin,6.91833,23.0,2.0,0.75047,place,object,person,1.0,3.14138,1.0,1.0,2.48536,4.0,1.0,1.954695,4.0,1.0,0.9855200000000001,1.0,1.0,1.58845,2.0,0.0,1.2568700000000002,2.0,20.0,1.0,0.250755
111,13.0,8.0,Summer,Jug,Julia,Pool,5.957380000000001,10.0,2.0,2.0842400000000003,person,object,place,0.0,4.20493,3.0,1.0,1.78463,3.0,1.0,1.288675,3.0,1.0,2.304565,2.0,1.0,1.03559,2.0,1.0,1.6674900000000001,2.0,15.0,1.0,0.270995
111,8.0,9.0,DIY,Headphones,Meryl,Ski Slope,6.9250050000000005,22.0,2.0,1.0668549999999999,object,person,place,1.0,1.5722399999999999,2.0,1.0,2.787615,3.0,1.0,3.212445,3.0,0.0,3.3742349999999997,2.0,1.0,1.117345,1.0,0.0,2.42095,1.0,10.0,1.0,0.287615
111,20.0,10.0,Exercise,Extinguisher,Denzel,Field,6.33856,4.0,3.0,1.256805,person,place,object,1.0,1.96973,1.0,1.0,4.17316,4.0,1.0,3.000465,2.0,0.0,1.6845599999999998,1.0,0.0,0.903805,1.0,0.0,1.4165,1.0,1.0,1.0,0.821895
111,7.0,11.0,Date,Football,Nicole,Dining Room,8.007925,6.0,4.0,1.719095,place,person,object,0.0,5.72239,3.0,1.0,3.93511,3.0,0.0,6.1691199999999995,4.0,1.0,1.21766,1.0,1.0,2.37147,2.0,1.0,1.575395,2.0,23.0,1.0,0.31866
111,4.0,12.0,Art,Binoculars,Ryan,Lake,6.0669,8.0,2.0,1.000805,object,place,person,1.0,6.156115,3.0,0.0,1.251055,4.0,0.0,5.13755,2.0,1.0,1.369175,1.0,1.0,1.6666400000000001,1.0,1.0,1.70533,1.0,8.0,1.0,0.434645
111,1.0,13.0,Celebration,Trampoline,Will,Icerink,6.738485000000001,19.0,3.0,1.20159,person,object,place,1.0,3.634015,2.0,1.0,2.91827,4.0,1.0,2.45985,4.0,1.0,1.684015,1.0,0.0,1.283675,1.0,0.0,2.73618,2.0,9.0,1.0,0.23425500000000002
111,10.0,14.0,Sightseeing,Wine,Samuel,Beach,6.134530000000001,21.0,2.0,1.3504450000000001,person,place,object,1.0,2.0735,2.0,1.0,5.08921,2.0,1.0,5.239655,2.0,1.0,1.005355,1.0,0.0,1.103895,1.0,0.0,1.688225,1.0,17.0,1.0,0.28326999999999997
111,19.0,15.0,Relaxing,Backpack,Robert,Lighthouse,2.334765,12.0,2.0,0.8999149999999999,place,object,person,1.0,2.88752,3.0,1.0,4.183975,4.0,1.0,3.53504,3.0,1.0,1.318805,1.0,0.0,1.3512,2.0,0.0,3.073475,1.0,3.0,2.0,1.40449
111,17.0,16.0,Home,Goggles,Mindy,Casino,3.3738900000000003,18.0,2.0,0.70044,person,place,object,1.0,2.3514150000000003,1.0,0.0,1.983725,3.0,0.0,2.2341,1.0,1.0,2.78717,1.0,0.0,1.2994350000000001,1.0,1.0,1.17392,1.0,4.0,1.0,0.40226
111,3.0,17.0,Games,Bike,George,Wine Cellar,5.15629,9.0,3.0,1.26931,person,object,place,1.0,4.271415,2.0,1.0,5.08261,2.0,1.0,4.201465,4.0,1.0,1.77175,1.0,1.0,1.9368849999999997,2.0,1.0,3.052875,2.0,2.0,1.0,0.45142
111,23.0,18.0,Party,Puppy,Ellen,Avenue,1.838615,11.0,2.0,1.56778,place,person,object,1.0,2.58678,1.0,0.0,2.8248900000000003,1.0,1.0,2.873375,4.0,0.0,0.920475,1.0,1.0,1.522255,1.0,1.0,0.954075,1.0,13.0,1.0,0.508365
111,12.0,19.0,Winter,Computer,Angelina,Restaurant,2.883425,1.0,1.0,1.69252,object,person,place,0.0,3.188065,1.0,1.0,2.8587849999999997,3.0,1.0,2.256615,1.0,1.0,1.60733,1.0,1.0,2.3843400000000003,1.0,0.0,1.435195,1.0,18.0,1.0,0.371395
111,21.0,20.0,Music,Beachball,Leonardo,Savannah,3.27345,14.0,2.0,0.9041049999999999,place,object,person,0.0,6.800389999999999,1.0,1.0,3.084225,2.0,1.0,1.96783,3.0,0.0,1.0895700000000001,1.0,1.0,1.4338600000000001,2.0,1.0,1.2537200000000002,2.0,6.0,1.0,0.28388
111,14.0,21.0,Vacation,Satchel,Reese,Bowling,3.89135,20.0,2.0,0.8159649999999999,place,person,object,1.0,2.482615,3.0,1.0,1.58751,1.0,1.0,3.587535,1.0,0.0,1.558115,2.0,1.0,1.83791,1.0,0.0,1.4570299999999998,1.0,21.0,1.0,0.37304499999999996
111,5.0,22.0,Shopping,Record,Brad,Harbor,2.439045,2.0,3.0,1.53928,place,person,object,1.0,5.9340150000000005,2.0,1.0,3.23402,2.0,1.0,2.53432,4.0,1.0,3.02156,2.0,1.0,2.584575,1.0,1.0,1.0686149999999999,2.0,5.0,1.0,0.25535
111,22.0,23.0,Competition,Chair,Adam,Kitchen,3.04153,16.0,2.0,0.85395,object,person,place,1.0,1.6686,4.0,0.0,1.9528849999999998,4.0,1.0,0.9867549999999999,3.0,1.0,0.970935,1.0,0.0,1.7005150000000002,2.0,0.0,0.967665,1.0,19.0,1.0,0.2859
