participant,event_id,encoding.thisN,theme,object_label,person_label,place_label,resp_encSpace.rt,retrieval.thisN,resp_ret_vividness.keys,resp_ret_vividness.rt,q1_type,q2_type,q3_type,resp_gistmem1.corr,resp_gistmem1.rt,resp_gistmem1.keys,resp_gistmem2.corr,resp_gistmem2.rt,resp_gistmem2.keys,resp_gistmem3.corr,resp_gistmem3.rt,resp_gistmem3.keys,resp_detailmem1.corr,resp_detailmem1.rt,resp_detailmem1.keys,resp_detailmem2.corr,resp_detailmem2.rt,resp_detailmem2.keys,resp_detailmem3.corr,resp_detailmem3.rt,resp_detailmem3.keys,familiarity.thisN,resp_facefam.keys,resp_facefam.rt
124,6.0,0.0,Family,Stopwatch,Tom,Basketball,,8.0,4.0,2.31033,object,place,person,1.0,8.29818,4.0,1.0,2.13667,4.0,1.0,7.055739999999999,1.0,1.0,1.53423,1.0,1.0,0.82644,1.0,1.0,2.67311,2.0,1.0,1.0,0.76046
124,4.0,1.0,Art,Binoculars,Ryan,Lake,12.038160000000001,17.0,4.0,1.587305,object,place,person,1.0,6.934130000000001,3.0,0.0,3.9158699999999995,2.0,1.0,2.530295,3.0,1.0,2.031445,1.0,0.0,41.984525,2.0,1.0,1.1165399999999999,1.0,16.0,1.0,0.28518499999999997
124,2.0,2.0,Studying,Duster,Chris,Classroom,9.350465,18.0,2.0,3.19506,place,object,person,1.0,97.1349,1.0,1.0,0.674995,1.0,1.0,1.676925,3.0,1.0,1.14825,2.0,1.0,3.4501800000000005,2.0,0.0,1.0598450000000001,1.0,22.0,1.0,3.228925
124,14.0,3.0,Vacation,Satchel,Reese,Bowling,,4.0,3.0,1.916395,place,person,object,0.0,5.2091,4.0,0.0,4.928405000000001,3.0,0.0,1.673545,3.0,0.0,1.83666,2.0,1.0,4.904555,1.0,0.0,1.28639,1.0,8.0,1.0,1.639425
124,11.0,4.0,Friends,Ladder,Sandra,Waterfall,13.60181,7.0,3.0,2.21938,person,object,place,1.0,3.05479,3.0,1.0,4.2886,4.0,1.0,1.4309049999999999,4.0,0.0,3.619425,2.0,1.0,1.66881,2.0,1.0,0.869775,1.0,4.0,1.0,0.795135
124,9.0,5.0,Travel,Gloves,Jennifer,Studio,,0.0,2.0,1.90267,object,place,person,0.0,6.99803,3.0,0.0,2.49538,3.0,1.0,2.038555,2.0,1.0,1.106725,2.0,1.0,3.8381550000000004,2.0,1.0,1.88096,1.0,13.0,1.0,4.74019
124,12.0,6.0,Winter,Computer,Angelina,Restaurant,,15.0,3.0,1.5711549999999999,object,person,place,1.0,3.112725,2.0,0.0,3.8944300000000003,1.0,0.0,2.297705,4.0,0.0,1.070025,2.0,1.0,1.378525,1.0,0.0,1.65215,1.0,12.0,1.0,8.717715
124,5.0,7.0,Shopping,Record,Brad,Harbor,,5.0,3.0,2.604125,place,person,object,0.0,7.122814999999999,3.0,1.0,1.9472049999999999,2.0,0.0,3.782715,1.0,1.0,2.286135,2.0,1.0,1.109905,1.0,1.0,1.669125,2.0,18.0,1.0,4.511465
124,8.0,8.0,DIY,Headphones,Meryl,Ski Slope,,12.0,5.0,2.29524,object,person,place,0.0,4.419905,4.0,1.0,3.17741,3.0,0.0,4.49148,1.0,1.0,0.8690450000000001,1.0,0.0,1.398895,2.0,1.0,1.99878,2.0,9.0,1.0,3.24058
124,21.0,9.0,Music,Beachball,Leonardo,Savannah,,9.0,5.0,2.3769400000000003,place,object,person,1.0,3.7909300000000004,3.0,1.0,7.317410000000001,2.0,1.0,1.192855,3.0,1.0,1.3858,2.0,0.0,3.54711,1.0,1.0,1.20476,2.0,19.0,1.0,0.444665
124,20.0,10.0,Exercise,Extinguisher,Denzel,Field,11.87047,22.0,4.0,1.58718,person,place,object,1.0,1.2215850000000001,1.0,1.0,3.7771449999999995,4.0,1.0,4.195305,2.0,0.0,1.6992049999999999,1.0,1.0,0.85369,2.0,0.0,0.938515,1.0,11.0,1.0,0.7283649999999999
124,17.0,11.0,Home,Goggles,Mindy,Casino,,2.0,3.0,2.712215,person,place,object,1.0,1.49339,1.0,1.0,4.273605,2.0,1.0,2.643455,4.0,1.0,3.28916,1.0,1.0,1.2073,2.0,1.0,0.67455,1.0,14.0,1.0,2.586125
124,18.0,12.0,Work,Flowers,Beyonce,Cabin,13.138570000000001,14.0,3.0,3.503545,place,object,person,1.0,3.04083,1.0,1.0,4.938865,4.0,1.0,2.641265,4.0,0.0,1.7402349999999998,2.0,1.0,0.9644,2.0,0.0,1.54615,2.0,15.0,1.0,0.599025
124,7.0,13.0,Date,Football,Nicole,Dining Room,10.46723,10.0,6.0,2.0788900000000003,place,person,object,1.0,1.325685,1.0,0.0,6.1813199999999995,2.0,1.0,2.4222349999999997,1.0,0.0,1.7097900000000001,2.0,0.0,3.19719,1.0,1.0,1.053295,2.0,0.0,1.0,1.6127200000000002
124,24.0,14.0,Eating,Stroller,Halle,Circus,9.02089,23.0,3.0,1.0613,person,place,object,1.0,2.1911,1.0,0.0,2.96674,3.0,1.0,3.3933050000000002,2.0,0.0,2.0981,2.0,0.0,1.8857700000000002,1.0,0.0,0.857355,1.0,2.0,1.0,0.72845
124,22.0,15.0,Competition,Chair,Adam,Kitchen,10.310545,1.0,1.0,78.565935,object,person,place,1.0,5.859575,4.0,1.0,0.6805100000000001,3.0,1.0,1.485185,3.0,1.0,1.176555,1.0,1.0,1.261735,1.0,1.0,3.9868949999999996,2.0,23.0,1.0,3.026105
124,15.0,16.0,Errands,Hammock,Emily,Bridge,,13.0,6.0,1.64973,object,place,person,1.0,2.9446,1.0,1.0,0.8903700000000001,2.0,1.0,2.363095,2.0,1.0,1.267665,1.0,1.0,2.435125,2.0,1.0,1.28681,1.0,3.0,1.0,0.79588
124,23.0,17.0,Party,Puppy,Ellen,Avenue,11.07998,19.0,4.0,1.067215,place,person,object,1.0,3.994725,1.0,1.0,0.808645,3.0,1.0,1.20876,4.0,1.0,1.5562850000000001,2.0,1.0,1.7718049999999999,1.0,1.0,0.9203899999999999,1.0,5.0,1.0,0.6109600000000001
124,3.0,18.0,Games,Bike,George,Wine Cellar,12.52283,16.0,4.0,1.7478599999999997,person,object,place,1.0,3.518175,2.0,0.0,5.17664,4.0,0.0,2.0474349999999997,2.0,1.0,2.29947,1.0,1.0,1.0777450000000002,2.0,1.0,1.631975,2.0,7.0,1.0,1.4112
124,19.0,19.0,Relaxing,Backpack,Robert,Lighthouse,,20.0,4.0,1.59178,place,object,person,1.0,3.4813650000000003,3.0,1.0,3.104545,4.0,0.0,7.941045,4.0,1.0,2.13519,1.0,1.0,1.033305,1.0,1.0,3.984255,2.0,17.0,1.0,0.664575
124,10.0,20.0,Sightseeing,Wine,Samuel,Beach,,6.0,4.0,3.160805,person,place,object,1.0,1.61216,2.0,1.0,0.9438799999999999,2.0,1.0,3.9075949999999997,2.0,1.0,1.07981,1.0,1.0,1.2533450000000002,2.0,1.0,1.3387,2.0,21.0,1.0,1.47922
124,1.0,21.0,Celebration,Trampoline,Will,Icerink,10.727765,3.0,3.0,4.73679,person,object,place,1.0,2.91016,2.0,1.0,2.0714799999999998,4.0,1.0,0.9161799999999999,4.0,1.0,1.469075,1.0,1.0,1.09758,2.0,0.0,1.226425,2.0,6.0,1.0,0.428925
124,16.0,22.0,Volunteer,Easel,Steve,Aquarium,9.416715,11.0,6.0,2.2498299999999998,object,person,place,0.0,8.116105000000001,2.0,0.0,8.141805,4.0,1.0,6.57653,2.0,1.0,1.319605,2.0,1.0,3.84444,1.0,1.0,1.0651950000000001,2.0,10.0,1.0,0.6366850000000001
124,13.0,23.0,Summer,Jug,Julia,Pool,,21.0,3.0,0.990665,person,object,place,1.0,4.289194999999999,1.0,0.0,2.87935,4.0,0.0,6.388835,2.0,1.0,1.6151200000000001,2.0,1.0,1.11206,2.0,1.0,1.17244,2.0,20.0,1.0,4.540915
