participant,event_id,encoding.thisN,theme,object_label,person_label,place_label,resp_encSpace.rt,retrieval.thisN,resp_ret_vividness.keys,resp_ret_vividness.rt,q1_type,q2_type,q3_type,resp_gistmem1.corr,resp_gistmem1.rt,resp_gistmem1.keys,resp_gistmem2.corr,resp_gistmem2.rt,resp_gistmem2.keys,resp_gistmem3.corr,resp_gistmem3.rt,resp_gistmem3.keys,resp_detailmem1.corr,resp_detailmem1.rt,resp_detailmem1.keys,resp_detailmem2.corr,resp_detailmem2.rt,resp_detailmem2.keys,resp_detailmem3.corr,resp_detailmem3.rt,resp_detailmem3.keys,familiarity.thisN,resp_facefam.keys,resp_facefam.rt
136,22.0,0.0,Competition,Chair,Adam,Kitchen,,0.0,2.0,4.343415,object,person,place,1.0,3.87036,4.0,1.0,2.71366,3.0,1.0,1.8353099999999998,3.0,1.0,1.7819,1.0,1.0,2.029105,1.0,0.0,1.9691900000000002,1.0,10.0,1.0,0.541145
136,14.0,1.0,Vacation,Satchel,Reese,Bowling,6.0826199999999995,11.0,2.0,2.7692,place,person,object,1.0,2.8726599999999998,3.0,1.0,1.792775,1.0,1.0,0.78914,1.0,0.0,2.337815,2.0,1.0,2.7448349999999997,1.0,1.0,1.151715,2.0,19.0,1.0,0.54137
136,21.0,2.0,Music,Beachball,Leonardo,Savannah,6.0581949999999996,23.0,1.0,1.172175,place,object,person,1.0,2.9929900000000003,3.0,1.0,3.537065,2.0,1.0,1.393105,3.0,0.0,1.335115,1.0,1.0,1.2756399999999999,2.0,0.0,2.37284,1.0,6.0,1.0,0.686345
136,4.0,3.0,Art,Binoculars,Ryan,Lake,2.026395,5.0,1.0,2.10233,object,place,person,0.0,4.32945,4.0,1.0,3.8461550000000004,3.0,1.0,2.05572,3.0,0.0,1.192035,2.0,1.0,1.4047049999999999,1.0,1.0,1.9447849999999998,1.0,1.0,1.0,0.72005
136,8.0,4.0,DIY,Headphones,Meryl,Ski Slope,7.5736300000000005,16.0,3.0,1.8861900000000003,object,person,place,1.0,1.9968849999999998,2.0,1.0,2.1923150000000002,3.0,1.0,3.503325,3.0,0.0,1.9623849999999998,2.0,1.0,2.487285,1.0,0.0,1.26843,1.0,14.0,1.0,0.98793
136,10.0,5.0,Sightseeing,Wine,Samuel,Beach,1.84125,17.0,1.0,2.102575,person,place,object,0.0,4.319995,1.0,1.0,3.05336,2.0,0.0,2.49713,1.0,0.0,2.360035,2.0,1.0,1.3256649999999999,2.0,0.0,1.3685,1.0,8.0,1.0,0.46047
136,13.0,6.0,Summer,Jug,Julia,Pool,4.4259949999999995,8.0,2.0,1.54072,person,object,place,0.0,2.052375,4.0,1.0,7.9965,3.0,0.0,4.07059,2.0,1.0,3.057075,2.0,1.0,1.32134,2.0,1.0,1.7695450000000001,2.0,11.0,1.0,0.5363600000000001
136,20.0,7.0,Exercise,Extinguisher,Denzel,Field,10.71372,15.0,3.0,2.175005,person,place,object,1.0,6.25902,1.0,0.0,4.40424,3.0,0.0,3.086375,1.0,0.0,2.0020700000000002,1.0,1.0,1.837125,2.0,0.0,1.65182,1.0,12.0,1.0,0.534705
136,11.0,8.0,Friends,Ladder,Sandra,Waterfall,5.0568599999999995,19.0,2.0,1.918885,person,object,place,1.0,3.67389,3.0,0.0,3.45822,2.0,1.0,5.137975,4.0,0.0,2.05301,2.0,1.0,2.303325,2.0,1.0,3.6939300000000004,1.0,18.0,1.0,0.701475
136,17.0,9.0,Home,Goggles,Mindy,Casino,,20.0,1.0,1.618275,person,place,object,1.0,4.15537,1.0,1.0,4.394585,2.0,0.0,7.707325,3.0,0.0,1.901975,2.0,0.0,1.402635,1.0,1.0,1.23777,1.0,0.0,1.0,1.451165
136,1.0,10.0,Celebration,Trampoline,Will,Icerink,5.873565,12.0,2.0,1.6065399999999999,person,object,place,1.0,6.08336,2.0,1.0,2.9918150000000003,4.0,1.0,1.60249,4.0,0.0,2.19017,2.0,1.0,1.441885,2.0,0.0,1.7854,2.0,21.0,1.0,0.487345
136,12.0,11.0,Winter,Computer,Angelina,Restaurant,5.28947,10.0,2.0,1.85647,object,person,place,0.0,8.618405000000001,4.0,1.0,4.895775,3.0,1.0,6.522695,1.0,1.0,2.439525,1.0,1.0,1.8019049999999999,1.0,1.0,1.58528,2.0,15.0,1.0,0.67557
136,2.0,12.0,Studying,Duster,Chris,Classroom,3.5773650000000004,1.0,2.0,6.19256,place,object,person,1.0,4.5175849999999995,1.0,1.0,4.7572,1.0,1.0,3.53761,3.0,1.0,1.9251599999999998,2.0,0.0,1.8199150000000002,1.0,1.0,1.52699,2.0,9.0,1.0,0.55511
136,6.0,13.0,Family,Stopwatch,Tom,Basketball,5.560695,13.0,1.0,1.83673,object,place,person,1.0,3.246375,4.0,1.0,1.40198,4.0,1.0,0.8177399999999999,1.0,1.0,1.89473,1.0,1.0,1.618765,1.0,1.0,2.85834,2.0,4.0,1.0,0.391015
136,23.0,14.0,Party,Puppy,Ellen,Avenue,4.961435,14.0,1.0,2.062575,place,person,object,1.0,4.17649,1.0,1.0,1.42669,3.0,1.0,1.2183950000000001,4.0,0.0,1.321135,1.0,1.0,1.351905,1.0,1.0,1.389805,1.0,13.0,1.0,0.48617
136,5.0,15.0,Shopping,Record,Brad,Harbor,3.137315,21.0,3.0,1.735525,place,person,object,1.0,5.779730000000001,2.0,1.0,1.2045299999999999,2.0,0.0,2.3117900000000002,1.0,1.0,1.54302,2.0,0.0,2.292735,2.0,1.0,1.26884,2.0,16.0,1.0,0.60097
136,24.0,16.0,Eating,Stroller,Halle,Circus,4.255425,6.0,1.0,1.6587599999999998,person,place,object,0.0,3.2701,3.0,1.0,4.52419,1.0,1.0,2.4088950000000002,2.0,1.0,1.77184,1.0,1.0,2.10563,2.0,1.0,2.095935,2.0,3.0,1.0,0.40112
136,3.0,17.0,Games,Bike,George,Wine Cellar,4.543865,4.0,4.0,2.4022650000000003,person,object,place,1.0,6.005625,2.0,1.0,10.002025,2.0,1.0,1.46281,4.0,1.0,4.304584999999999,1.0,1.0,2.002415,2.0,1.0,0.7934100000000001,2.0,2.0,1.0,0.53473
136,9.0,18.0,Travel,Gloves,Jennifer,Studio,5.576185,22.0,2.0,2.37065,object,place,person,1.0,3.078385,1.0,1.0,5.390005,2.0,1.0,1.7124650000000001,2.0,0.0,2.09492,1.0,1.0,2.943105,2.0,0.0,2.40449,2.0,20.0,1.0,0.6345850000000001
136,19.0,19.0,Relaxing,Backpack,Robert,Lighthouse,2.99264,3.0,3.0,2.075295,place,object,person,1.0,2.6441049999999997,3.0,1.0,1.51468,4.0,1.0,2.421765,3.0,1.0,2.20238,1.0,1.0,1.410575,1.0,1.0,2.385995,2.0,7.0,1.0,0.7378100000000001
136,7.0,20.0,Date,Football,Nicole,Dining Room,5.48022,7.0,4.0,4.380434999999999,place,person,object,1.0,2.9201349999999997,1.0,1.0,1.109025,3.0,1.0,1.5251700000000001,1.0,1.0,1.64313,1.0,1.0,1.654005,2.0,0.0,1.485095,1.0,22.0,1.0,0.57301
136,16.0,21.0,Volunteer,Easel,Steve,Aquarium,3.10419,2.0,1.0,2.793945,object,person,place,1.0,3.2546150000000003,4.0,0.0,3.4868550000000003,1.0,1.0,1.05265,2.0,0.0,2.0684150000000003,1.0,0.0,3.5367800000000003,2.0,1.0,1.60376,2.0,5.0,1.0,0.488205
136,18.0,22.0,Work,Flowers,Beyonce,Cabin,3.008045,18.0,1.0,1.702205,place,object,person,1.0,1.38876,1.0,1.0,2.041155,4.0,1.0,0.962725,4.0,1.0,1.369105,1.0,1.0,1.04531,2.0,1.0,0.936425,1.0,23.0,1.0,0.55807
136,15.0,23.0,Errands,Hammock,Emily,Bridge,4.823885,9.0,2.0,2.04127,object,place,person,1.0,2.571605,1.0,0.0,3.7440300000000004,3.0,1.0,0.861535,2.0,1.0,1.7107400000000001,1.0,1.0,6.278405,2.0,1.0,1.67652,1.0,17.0,1.0,0.592575
