participant,event_id,encoding.thisN,theme,object_label,person_label,place_label,resp_encSpace.rt,retrieval.thisN,resp_ret_vividness.keys,resp_ret_vividness.rt,q1_type,q2_type,q3_type,resp_gistmem1.corr,resp_gistmem1.rt,resp_gistmem1.keys,resp_gistmem2.corr,resp_gistmem2.rt,resp_gistmem2.keys,resp_gistmem3.corr,resp_gistmem3.rt,resp_gistmem3.keys,resp_detailmem1.corr,resp_detailmem1.rt,resp_detailmem1.keys,resp_detailmem2.corr,resp_detailmem2.rt,resp_detailmem2.keys,resp_detailmem3.corr,resp_detailmem3.rt,resp_detailmem3.keys,familiarity.thisN,resp_facefam.keys,resp_facefam.rt
145,4.0,0.0,Art,Binoculars,Ryan,Lake,,9.0,1.0,3.97191,object,place,person,1.0,9.252715,3.0,1.0,4.867505,3.0,1.0,2.284065,3.0,0.0,3.0348599999999997,2.0,1.0,1.93465,1.0,1.0,2.26764,1.0,8.0,1.0,0.78147
145,11.0,1.0,Friends,Ladder,Sandra,Waterfall,13.267515,16.0,2.0,4.003605,person,object,place,0.0,4.4345099999999995,4.0,1.0,3.1679150000000003,4.0,0.0,2.200885,2.0,1.0,2.41763,1.0,1.0,1.9340099999999998,2.0,1.0,1.5009649999999999,1.0,4.0,1.0,0.6338550000000001
145,6.0,2.0,Family,Stopwatch,Tom,Basketball,,5.0,2.0,3.5686050000000002,object,place,person,1.0,9.4853,4.0,1.0,2.884935,4.0,0.0,3.76761,4.0,1.0,2.13298,1.0,1.0,1.35127,1.0,1.0,4.733025,2.0,0.0,3.0,4.067975
145,22.0,3.0,Competition,Chair,Adam,Kitchen,,1.0,1.0,4.554295,object,person,place,1.0,5.234635,4.0,1.0,2.41557,3.0,1.0,2.60142,3.0,1.0,4.888595,1.0,1.0,1.886785,1.0,0.0,3.83334,1.0,14.0,1.0,1.118535
145,8.0,4.0,DIY,Headphones,Meryl,Ski Slope,,2.0,3.0,4.76919,object,person,place,1.0,2.485275,2.0,1.0,4.65171,3.0,1.0,10.151305,3.0,0.0,2.918645,2.0,1.0,4.169215,1.0,1.0,2.3536650000000003,2.0,16.0,1.0,0.807705
145,21.0,5.0,Music,Beachball,Leonardo,Savannah,,18.0,1.0,5.96826,place,object,person,1.0,6.700514999999999,3.0,1.0,3.867685,2.0,0.0,2.684195,1.0,1.0,1.8836650000000001,2.0,1.0,1.7314450000000001,2.0,0.0,2.3836049999999998,1.0,7.0,1.0,0.4368
145,24.0,6.0,Eating,Stroller,Halle,Circus,,6.0,2.0,4.1318,person,place,object,0.0,4.44797,3.0,1.0,9.10015,1.0,1.0,1.7546599999999999,2.0,1.0,2.584645,1.0,0.0,1.6858549999999999,1.0,1.0,2.71731,2.0,15.0,1.0,0.61711
145,23.0,7.0,Party,Puppy,Ellen,Avenue,,10.0,1.0,4.6845349999999994,place,person,object,0.0,6.63431,2.0,0.0,5.017245,4.0,1.0,5.282845,4.0,1.0,4.951575,2.0,1.0,1.8192099999999998,1.0,1.0,1.97265,1.0,1.0,1.0,1.2997
145,12.0,8.0,Winter,Computer,Angelina,Restaurant,,19.0,3.0,3.549485,object,person,place,1.0,6.2342900000000006,2.0,0.0,3.53418,2.0,1.0,1.417705,1.0,1.0,1.529735,1.0,1.0,1.5508899999999999,1.0,1.0,3.3513949999999997,2.0,3.0,1.0,1.567105
145,1.0,9.0,Celebration,Trampoline,Will,Icerink,,20.0,3.0,3.2526,person,object,place,1.0,3.91773,2.0,1.0,5.568835,4.0,1.0,1.33523,4.0,1.0,3.6503699999999997,1.0,1.0,1.90172,2.0,0.0,1.934395,2.0,23.0,1.0,0.617925
145,15.0,10.0,Errands,Hammock,Emily,Bridge,,23.0,4.0,2.967365,object,place,person,1.0,1.634715,1.0,1.0,1.8010099999999998,2.0,1.0,3.35083,2.0,1.0,1.353175,1.0,1.0,2.5822950000000002,2.0,0.0,5.051205,2.0,13.0,1.0,0.56665
145,14.0,11.0,Vacation,Satchel,Reese,Bowling,,12.0,2.0,3.9511550000000004,place,person,object,1.0,4.93348,3.0,0.0,3.249675,2.0,0.0,3.234375,2.0,0.0,2.350365,2.0,1.0,1.9002,1.0,1.0,2.7516950000000002,2.0,5.0,1.0,1.7672450000000002
145,16.0,12.0,Volunteer,Easel,Steve,Aquarium,,8.0,2.0,4.13517,object,person,place,0.0,13.89936,2.0,1.0,3.7014650000000002,3.0,0.0,4.100594999999999,4.0,1.0,3.245485,2.0,0.0,2.26923,2.0,1.0,2.40116,2.0,20.0,2.0,1.4501600000000001
145,9.0,13.0,Travel,Gloves,Jennifer,Studio,,15.0,2.0,2.317825,object,place,person,1.0,7.33513,1.0,1.0,2.33418,2.0,1.0,0.75125,2.0,1.0,1.6342299999999998,2.0,0.0,1.533285,1.0,1.0,1.9850700000000001,1.0,9.0,1.0,0.36704499999999995
145,10.0,14.0,Sightseeing,Wine,Samuel,Beach,,7.0,4.0,7.033555000000001,person,place,object,1.0,6.681185,2.0,1.0,2.101255,2.0,1.0,5.5338650000000005,2.0,1.0,3.838675,1.0,0.0,1.55264,1.0,1.0,1.41809,2.0,10.0,3.0,2.60141
145,2.0,15.0,Studying,Duster,Chris,Classroom,,22.0,2.0,3.73297,place,object,person,1.0,4.067685,1.0,1.0,2.96753,1.0,1.0,2.57119,3.0,1.0,5.453265,2.0,1.0,1.7337,2.0,0.0,1.43598,1.0,19.0,1.0,0.517915
145,20.0,16.0,Exercise,Extinguisher,Denzel,Field,13.699205,17.0,1.0,1.517765,person,place,object,1.0,2.55076,1.0,1.0,1.9350150000000002,4.0,1.0,69.88388499999999,2.0,0.0,1.705905,1.0,1.0,2.9530000000000003,2.0,0.0,1.984225,1.0,22.0,1.0,0.8549549999999999
145,19.0,17.0,Relaxing,Backpack,Robert,Lighthouse,10.31682,3.0,3.0,5.382175,place,object,person,1.0,7.568614999999999,3.0,1.0,4.2045,4.0,1.0,5.201375,3.0,1.0,2.0339400000000003,1.0,1.0,1.517635,1.0,1.0,2.82262,2.0,6.0,1.0,0.500195
145,13.0,18.0,Summer,Jug,Julia,Pool,13.950485,13.0,1.0,2.08395,person,object,place,0.0,4.317785,4.0,1.0,4.871185,3.0,1.0,3.9685300000000003,3.0,1.0,3.85083,2.0,1.0,2.03415,2.0,0.0,1.334095,1.0,12.0,1.0,5.733925
145,18.0,19.0,Work,Flowers,Beyonce,Cabin,12.088175,21.0,1.0,1.7853900000000003,place,object,person,1.0,3.29975,1.0,1.0,1.83771,4.0,1.0,0.43816499999999997,4.0,1.0,2.033,1.0,1.0,1.384615,2.0,0.0,3.2846900000000003,2.0,11.0,1.0,0.75042
145,3.0,20.0,Games,Bike,George,Wine Cellar,10.85046,0.0,5.0,9.33239,person,object,place,1.0,4.152705,2.0,1.0,3.88345,2.0,1.0,2.682225,4.0,1.0,3.000025,1.0,0.0,4.7684050000000004,1.0,1.0,3.6200449999999997,2.0,2.0,1.0,0.85301
145,5.0,21.0,Shopping,Record,Brad,Harbor,12.704215,14.0,1.0,2.6848549999999998,place,person,object,1.0,5.485609999999999,2.0,1.0,5.417375,2.0,1.0,3.18597,4.0,1.0,2.91856,2.0,0.0,2.649505,2.0,0.0,2.903435,1.0,18.0,1.0,1.079805
145,17.0,22.0,Home,Goggles,Mindy,Casino,,4.0,1.0,3.184365,person,place,object,1.0,6.519995,1.0,1.0,9.055825,2.0,1.0,4.01767,4.0,1.0,2.6840200000000003,1.0,0.0,1.51804,1.0,1.0,1.034355,1.0,21.0,2.0,2.620135
145,7.0,23.0,Date,Football,Nicole,Dining Room,,11.0,5.0,3.9342,place,person,object,1.0,1.318465,1.0,0.0,5.25061,4.0,1.0,1.3180100000000001,1.0,1.0,1.3174299999999999,1.0,1.0,3.016785,2.0,1.0,1.9001099999999997,2.0,17.0,3.0,1.901045
