participant,event_id,encoding.thisN,theme,object_label,person_label,place_label,resp_encSpace.rt,retrieval.thisN,resp_ret_vividness.keys,resp_ret_vividness.rt,q1_type,q2_type,q3_type,resp_gistmem1.corr,resp_gistmem1.rt,resp_gistmem1.keys,resp_gistmem2.corr,resp_gistmem2.rt,resp_gistmem2.keys,resp_gistmem3.corr,resp_gistmem3.rt,resp_gistmem3.keys,resp_detailmem1.corr,resp_detailmem1.rt,resp_detailmem1.keys,resp_detailmem2.corr,resp_detailmem2.rt,resp_detailmem2.keys,resp_detailmem3.corr,resp_detailmem3.rt,resp_detailmem3.keys,familiarity.thisN,resp_facefam.keys,resp_facefam.rt
157,17.0,0.0,Home,Goggles,Mindy,Casino,,12.0,1.0,2.02156,person,place,object,1.0,6.6175,1.0,1.0,4.00951,2.0,0.0,1.770645,3.0,0.0,2.050615,2.0,0.0,1.950905,1.0,1.0,1.385765,1.0,6.0,1.0,0.287265
157,8.0,1.0,DIY,Headphones,Meryl,Ski Slope,10.72401,4.0,2.0,1.7027,object,person,place,1.0,1.7508549999999998,2.0,0.0,3.702635,4.0,1.0,4.317655,3.0,0.0,1.784555,2.0,1.0,1.660725,1.0,1.0,1.046135,2.0,20.0,1.0,0.034664999999999994
157,2.0,2.0,Studying,Duster,Chris,Classroom,8.064475,23.0,1.0,1.0082149999999999,place,object,person,1.0,2.996265,1.0,1.0,0.70905,1.0,1.0,1.4500549999999999,3.0,1.0,1.24114,2.0,1.0,1.09399,2.0,1.0,2.1989400000000003,2.0,1.0,1.0,0.28724
157,4.0,3.0,Art,Binoculars,Ryan,Lake,,5.0,3.0,1.584445,object,place,person,1.0,2.951245,3.0,1.0,2.53892,3.0,1.0,1.31786,3.0,0.0,1.034,2.0,1.0,1.95229,1.0,1.0,1.40242,1.0,8.0,1.0,0.05051
157,21.0,4.0,Music,Beachball,Leonardo,Savannah,12.009780000000001,21.0,3.0,0.917075,place,object,person,1.0,2.38531,3.0,1.0,4.32451,2.0,1.0,1.892145,3.0,0.0,1.700505,1.0,1.0,0.835935,2.0,0.0,1.60348,1.0,19.0,1.0,0.03435
157,15.0,5.0,Errands,Hammock,Emily,Bridge,12.331845,7.0,4.0,2.29998,object,place,person,1.0,2.8355599999999996,1.0,1.0,1.08699,2.0,1.0,0.45086000000000004,2.0,1.0,2.4836150000000004,1.0,1.0,2.201245,2.0,1.0,1.466955,1.0,9.0,1.0,0.22775
157,10.0,6.0,Sightseeing,Wine,Samuel,Beach,8.40129,8.0,2.0,2.5714799999999998,person,place,object,0.0,5.70067,1.0,0.0,8.034205,1.0,0.0,1.466915,1.0,0.0,1.350035,2.0,1.0,2.16814,2.0,1.0,0.9503,2.0,23.0,1.0,0.872025
157,9.0,7.0,Travel,Gloves,Jennifer,Studio,9.149215,10.0,4.0,1.7533299999999998,object,place,person,1.0,3.58365,1.0,1.0,4.434115,2.0,0.0,4.516505,3.0,1.0,1.383645,2.0,0.0,1.95023,1.0,0.0,2.351435,2.0,14.0,1.0,0.036625
157,3.0,8.0,Games,Bike,George,Wine Cellar,9.343995,16.0,4.0,1.8273849999999998,person,object,place,1.0,2.09707,2.0,1.0,1.510965,2.0,1.0,1.67553,4.0,0.0,1.624485,2.0,0.0,1.41719,1.0,1.0,1.10119,2.0,21.0,1.0,0.05496
157,6.0,9.0,Family,Stopwatch,Tom,Basketball,11.25141,6.0,2.0,1.183495,object,place,person,1.0,2.0354,4.0,1.0,1.434615,4.0,1.0,1.4338950000000001,1.0,1.0,1.635805,1.0,1.0,1.36675,1.0,1.0,1.051475,2.0,11.0,1.0,0.022405
157,5.0,10.0,Shopping,Record,Brad,Harbor,7.868335000000001,22.0,1.0,1.32371,place,person,object,1.0,2.535175,2.0,1.0,4.959955,2.0,1.0,3.74965,4.0,1.0,1.84,2.0,1.0,2.64295,1.0,1.0,1.4374149999999999,2.0,12.0,1.0,0.087065
157,16.0,11.0,Volunteer,Easel,Steve,Aquarium,10.89224,2.0,2.0,1.71743,object,person,place,1.0,1.71872,4.0,1.0,0.7923399999999999,3.0,1.0,1.45112,2.0,1.0,1.28529,2.0,1.0,1.7838599999999998,1.0,1.0,1.173985,2.0,7.0,1.0,0.070635
157,24.0,12.0,Eating,Stroller,Halle,Circus,11.269065,9.0,3.0,0.777455,person,place,object,0.0,2.069505,4.0,1.0,3.9021199999999996,1.0,1.0,1.550775,2.0,0.0,2.5518,2.0,1.0,2.61757,2.0,1.0,1.450955,2.0,22.0,1.0,0.021269999999999997
157,7.0,13.0,Date,Football,Nicole,Dining Room,11.544145,11.0,4.0,1.3881649999999999,place,person,object,1.0,4.100125,1.0,1.0,4.58488,3.0,1.0,0.699805,1.0,1.0,1.10294,1.0,1.0,1.3001200000000002,2.0,0.0,3.020045,1.0,4.0,1.0,0.27788
157,13.0,14.0,Summer,Jug,Julia,Pool,9.48833,19.0,2.0,1.14632,person,object,place,1.0,2.20131,1.0,1.0,1.68297,3.0,1.0,1.3336350000000001,3.0,0.0,2.13407,1.0,0.0,2.35732,1.0,1.0,1.0678299999999998,2.0,0.0,1.0,1.160495
157,22.0,15.0,Competition,Chair,Adam,Kitchen,10.182385,3.0,4.0,1.684895,object,person,place,0.0,10.70146,3.0,1.0,1.517425,3.0,1.0,1.466185,3.0,1.0,1.875075,1.0,1.0,0.76926,1.0,1.0,1.4247,2.0,3.0,1.0,0.07221
157,19.0,16.0,Relaxing,Backpack,Robert,Lighthouse,7.840635000000001,13.0,2.0,1.58397,place,object,person,1.0,3.6206050000000003,3.0,1.0,1.7163700000000002,4.0,0.0,1.578275,4.0,0.0,1.369335,2.0,0.0,1.25619,2.0,1.0,1.9887849999999998,2.0,18.0,1.0,0.0751
157,23.0,17.0,Party,Puppy,Ellen,Avenue,8.25192,15.0,4.0,1.299735,place,person,object,1.0,1.61842,1.0,1.0,1.177,3.0,1.0,1.17686,4.0,1.0,3.3849050000000003,2.0,1.0,1.9000599999999999,1.0,1.0,1.387325,1.0,13.0,1.0,0.087805
157,14.0,18.0,Vacation,Satchel,Reese,Bowling,8.590385000000001,0.0,3.0,4.07134,place,person,object,1.0,3.3513900000000003,3.0,1.0,4.369565000000001,1.0,1.0,1.8729650000000002,1.0,1.0,3.952915,1.0,0.0,1.400085,2.0,1.0,1.882895,2.0,16.0,1.0,0.00238
157,12.0,19.0,Winter,Computer,Angelina,Restaurant,10.502035000000001,17.0,4.0,1.500805,object,person,place,1.0,2.73265,2.0,1.0,3.4780699999999998,3.0,1.0,2.384975,1.0,1.0,1.267945,1.0,1.0,2.2711650000000003,1.0,1.0,1.056035,2.0,10.0,1.0,0.070905
157,18.0,20.0,Work,Flowers,Beyonce,Cabin,8.75603,20.0,2.0,1.08551,place,object,person,1.0,3.90009,1.0,1.0,2.48148,4.0,1.0,1.954855,4.0,1.0,1.423095,1.0,1.0,0.93653,2.0,0.0,1.062825,2.0,17.0,1.0,0.02129
157,1.0,21.0,Celebration,Trampoline,Will,Icerink,,1.0,4.0,2.4021,person,object,place,1.0,2.45268,2.0,1.0,2.952575,4.0,1.0,0.9849899999999999,4.0,1.0,4.583995,1.0,1.0,1.285865,2.0,1.0,1.94249,1.0,5.0,1.0,0.121305
157,11.0,22.0,Friends,Ladder,Sandra,Waterfall,10.21542,18.0,3.0,1.10039,person,object,place,1.0,2.575375,3.0,1.0,3.58665,4.0,1.0,1.967295,4.0,0.0,1.12805,2.0,1.0,0.9244450000000001,2.0,1.0,1.2770000000000001,1.0,2.0,1.0,0.1456
157,20.0,23.0,Exercise,Extinguisher,Denzel,Field,9.926505,14.0,3.0,1.40507,person,place,object,1.0,3.468055,1.0,1.0,1.9586400000000002,4.0,1.0,7.6674,2.0,1.0,1.48386,2.0,1.0,1.12204,2.0,1.0,2.1513400000000003,2.0,15.0,1.0,0.038360000000000005
