participant,event_id,encoding.thisN,theme,object_label,person_label,place_label,resp_encSpace.rt,retrieval.thisN,resp_ret_vividness.keys,resp_ret_vividness.rt,q1_type,q2_type,q3_type,resp_gistmem1.corr,resp_gistmem1.rt,resp_gistmem1.keys,resp_gistmem2.corr,resp_gistmem2.rt,resp_gistmem2.keys,resp_gistmem3.corr,resp_gistmem3.rt,resp_gistmem3.keys,resp_detailmem1.corr,resp_detailmem1.rt,resp_detailmem1.keys,resp_detailmem2.corr,resp_detailmem2.rt,resp_detailmem2.keys,resp_detailmem3.corr,resp_detailmem3.rt,resp_detailmem3.keys,familiarity.thisN,resp_facefam.keys,resp_facefam.rt
173,2.0,0.0,Studying,Duster,Chris,Classroom,,6.0,2.0,1.571035,place,object,person,0.0,3.799495,2.0,1.0,3.400975,1.0,1.0,3.06601,3.0,1.0,2.04102,2.0,1.0,2.61057,2.0,1.0,2.8338099999999997,2.0,11.0,1.0,0.33512
173,6.0,1.0,Family,Stopwatch,Tom,Basketball,11.02517,5.0,2.0,1.43916,object,place,person,0.0,1.348595,2.0,0.0,5.832990000000001,1.0,1.0,2.4852950000000003,1.0,1.0,3.29525,1.0,0.0,7.902769999999999,2.0,1.0,1.4647299999999999,2.0,21.0,1.0,0.555715
173,1.0,2.0,Celebration,Trampoline,Will,Icerink,6.297805,9.0,2.0,3.17857,person,object,place,0.0,4.336125,3.0,1.0,6.82568,4.0,1.0,1.8139349999999999,4.0,1.0,3.2877199999999998,1.0,1.0,2.09544,2.0,0.0,1.732425,2.0,7.0,1.0,0.45821000000000006
173,21.0,3.0,Music,Beachball,Leonardo,Savannah,4.589705,18.0,3.0,1.789755,place,object,person,1.0,5.86587,3.0,1.0,3.200755,2.0,1.0,3.66515,3.0,1.0,1.9233200000000001,2.0,1.0,1.6112950000000001,2.0,0.0,1.650235,1.0,15.0,1.0,0.662665
173,8.0,4.0,DIY,Headphones,Meryl,Ski Slope,4.85043,7.0,3.0,3.095605,object,person,place,1.0,2.115965,2.0,1.0,1.1682700000000001,3.0,1.0,1.483425,3.0,0.0,2.482215,2.0,0.0,2.9502,2.0,1.0,6.72549,2.0,17.0,1.0,0.51736
173,20.0,5.0,Exercise,Extinguisher,Denzel,Field,5.49274,16.0,2.0,1.625105,person,place,object,1.0,3.338725,1.0,0.0,2.1842,2.0,1.0,2.2082450000000002,2.0,0.0,1.851235,1.0,1.0,2.6689849999999997,2.0,1.0,2.743965,2.0,20.0,1.0,1.67595
173,16.0,6.0,Volunteer,Easel,Steve,Aquarium,7.7622,8.0,1.0,2.457575,object,person,place,0.0,3.3367199999999997,1.0,0.0,0.355515,1.0,1.0,4.5152849999999995,2.0,1.0,2.80146,2.0,0.0,2.853925,2.0,1.0,1.667545,2.0,14.0,1.0,0.63522
173,17.0,7.0,Home,Goggles,Mindy,Casino,7.89445,0.0,2.0,4.77413,person,place,object,0.0,7.744055,2.0,0.0,6.893689999999999,4.0,0.0,11.170045,1.0,1.0,3.629975,1.0,0.0,5.382985,1.0,1.0,3.1448099999999997,1.0,9.0,2.0,3.403
173,12.0,8.0,Winter,Computer,Angelina,Restaurant,2.12247,15.0,2.0,1.94608,object,person,place,0.0,2.78205,3.0,1.0,1.100225,3.0,0.0,4.0297,3.0,0.0,2.74189,2.0,1.0,1.81604,1.0,1.0,2.88917,2.0,2.0,1.0,0.39618000000000003
173,19.0,9.0,Relaxing,Backpack,Robert,Lighthouse,5.430105,2.0,3.0,7.008675,place,object,person,1.0,2.8612349999999998,3.0,1.0,3.5926199999999997,4.0,0.0,2.14053,4.0,1.0,5.426295,1.0,1.0,1.425445,1.0,1.0,3.63701,2.0,8.0,1.0,0.36730999999999997
173,24.0,10.0,Eating,Stroller,Halle,Circus,2.88976,4.0,1.0,2.35132,person,place,object,0.0,2.841135,3.0,0.0,5.736135,2.0,0.0,4.99561,1.0,1.0,3.531925,1.0,1.0,3.02528,2.0,0.0,1.50085,1.0,12.0,1.0,0.818355
173,13.0,11.0,Summer,Jug,Julia,Pool,8.91951,3.0,2.0,2.831835,person,object,place,1.0,6.347405,1.0,1.0,4.6334599999999995,3.0,1.0,5.862744999999999,3.0,1.0,3.3729050000000003,2.0,1.0,2.223795,2.0,1.0,7.02877,2.0,10.0,1.0,0.452715
173,15.0,12.0,Errands,Hammock,Emily,Bridge,6.220219999999999,22.0,2.0,1.551115,object,place,person,0.0,4.00295,2.0,0.0,4.24874,1.0,1.0,6.60993,2.0,1.0,2.304585,1.0,1.0,2.6585799999999997,2.0,1.0,1.4876049999999998,1.0,18.0,1.0,0.67074
173,22.0,13.0,Competition,Chair,Adam,Kitchen,6.701685,10.0,2.0,2.852535,object,person,place,0.0,3.019935,3.0,0.0,2.3987,4.0,1.0,5.30253,3.0,0.0,2.2664299999999997,2.0,1.0,7.029,1.0,1.0,2.30125,2.0,3.0,1.0,0.251675
173,11.0,14.0,Friends,Ladder,Sandra,Waterfall,8.09459,12.0,1.0,1.53738,person,object,place,0.0,4.665195,4.0,0.0,2.84777,1.0,0.0,4.736000000000001,2.0,1.0,4.17278,1.0,1.0,2.7273650000000003,2.0,1.0,1.24451,1.0,4.0,1.0,0.32164
173,3.0,15.0,Games,Bike,George,Wine Cellar,9.52675,17.0,2.0,1.766025,person,object,place,0.0,2.947845,4.0,1.0,5.296235,2.0,0.0,5.646585,1.0,0.0,2.57381,2.0,1.0,5.38066,2.0,0.0,2.39863,1.0,19.0,1.0,0.93958
173,9.0,16.0,Travel,Gloves,Jennifer,Studio,4.284235,21.0,2.0,1.295195,object,place,person,0.0,1.9477400000000002,3.0,0.0,22.883195,1.0,1.0,1.416685,2.0,1.0,2.90081,2.0,0.0,1.73275,1.0,1.0,1.6996349999999998,1.0,23.0,1.0,0.52759
173,5.0,17.0,Shopping,Record,Brad,Harbor,11.00732,11.0,3.0,2.439665,place,person,object,0.0,4.1615400000000005,3.0,1.0,2.199225,2.0,0.0,3.07484,1.0,0.0,3.71696,1.0,1.0,1.973255,1.0,0.0,3.058755,1.0,1.0,1.0,1.523475
173,23.0,18.0,Party,Puppy,Ellen,Avenue,,20.0,3.0,1.221385,place,person,object,1.0,2.367065,1.0,1.0,3.15956,3.0,0.0,2.618575,3.0,1.0,2.6490299999999998,2.0,0.0,1.9457200000000001,2.0,1.0,1.799975,1.0,0.0,1.0,7.2717
173,14.0,19.0,Vacation,Satchel,Reese,Bowling,6.36322,13.0,2.0,2.44995,place,person,object,0.0,2.81917,4.0,1.0,2.42665,1.0,0.0,2.94834,3.0,0.0,4.0300400000000005,2.0,0.0,4.7336599999999995,2.0,1.0,2.4670900000000002,2.0,22.0,1.0,0.9337799999999999
173,4.0,20.0,Art,Binoculars,Ryan,Lake,,1.0,3.0,2.50628,object,place,person,0.0,5.036385,1.0,0.0,4.54758,2.0,1.0,6.99425,3.0,1.0,2.7655950000000002,1.0,0.0,3.583735,2.0,1.0,1.44106,1.0,16.0,1.0,0.5222100000000001
173,10.0,21.0,Sightseeing,Wine,Samuel,Beach,9.471035,19.0,3.0,3.5156400000000003,person,place,object,1.0,3.27422,2.0,1.0,3.010295,2.0,0.0,5.26713,3.0,0.0,3.2646599999999997,2.0,1.0,1.8721599999999998,2.0,0.0,2.21678,1.0,13.0,1.0,0.49348500000000006
173,18.0,22.0,Work,Flowers,Beyonce,Cabin,8.33572,23.0,2.0,2.17303,place,object,person,1.0,4.747365,1.0,1.0,1.679705,4.0,1.0,2.214805,4.0,1.0,1.981955,1.0,1.0,2.231455,2.0,0.0,4.75226,2.0,5.0,1.0,0.57199
173,7.0,23.0,Date,Football,Nicole,Dining Room,9.547130000000001,14.0,3.0,1.98285,place,person,object,1.0,1.332275,1.0,1.0,2.8399400000000004,3.0,1.0,1.23397,1.0,1.0,1.44565,1.0,1.0,3.281475,2.0,1.0,1.93573,2.0,6.0,1.0,0.949095
