participant,expName,event_id,encoding.thisN,theme,object_label,person_label,place_label,resp_encSpace.rt,resp_enc_success.keys,resp_enc_success.rt,retrieval.thisN,resp_ret_vividness.keys,resp_ret_vividness.rt,q1_type,q2_type,q3_type,resp_gistmem1.corr,resp_gistmem1.rt,resp_gistmem1.keys,resp_gistmem2.corr,resp_gistmem2.rt,resp_gistmem2.keys,resp_gistmem3.corr,resp_gistmem3.rt,resp_gistmem3.keys,resp_detailmem1.corr,resp_detailmem1.rt,resp_detailmem1.keys,resp_detailmem2.corr,resp_detailmem2.rt,resp_detailmem2.keys,resp_detailmem3.corr,resp_detailmem3.rt,resp_detailmem3.keys,familiarity.thisN,resp_facefam.keys,resp_facefam.rt
306,grpB,24.0,0.0,Family,Extinguisher,Ryan,Basketball,13.36711,4.0,14.378855,6.0,1.0,1.722125,person,place,object,0.0,2.9864450000000002,2.0,0.0,7.942945,1.0,0.0,4.238075,1.0,1.0,2.0907,1.0,1.0,2.283985,1.0,0.0,1.813435,1.0,14.0,1.0,0.49508500000000005
306,grpB,6.0,1.0,Sightseeing,Ladder,Adam,Beach,13.3907,4.0,3.620775,8.0,1.0,0.891905,object,place,person,1.0,8.119355,2.0,0.0,5.237735,2.0,0.0,0.907285,1.0,1.0,2.5722099999999997,2.0,1.0,2.393795,2.0,1.0,2.11767,2.0,2.0,1.0,0.54943
306,grpB,1.0,2.0,Date,Pitcher,Reese,Studio,12.871175,2.0,5.772835,2.0,1.0,3.6676949999999997,person,place,object,1.0,3.960825,3.0,0.0,8.08072,1.0,0.0,1.64966,1.0,1.0,5.574815,1.0,0.0,1.38929,1.0,1.0,0.9545100000000001,2.0,23.0,1.0,0.49322
306,grpB,4.0,3.0,Exercise,Beachball,Will,Casino,8.68343,3.0,3.8537550000000005,9.0,1.0,0.730545,object,person,place,0.0,6.40227,4.0,0.0,2.5780849999999997,4.0,1.0,4.304755,2.0,1.0,2.500725,1.0,0.0,1.7007700000000001,1.0,1.0,1.7948650000000002,1.0,17.0,1.0,1.7337650000000002
306,grpB,2.0,4.0,Volunteer,Flowers,Jennifer,Waterfall,10.58261,1.0,1.260355,14.0,1.0,0.93945,person,place,object,0.0,2.641315,2.0,0.0,3.72531,2.0,1.0,1.773475,4.0,0.0,2.635195,1.0,0.0,0.78964,2.0,1.0,1.052425,1.0,16.0,1.0,0.31783
306,grpB,11.0,5.0,Games,Binoculars,Leonardo,Lake,13.29316,4.0,2.7713,15.0,1.0,1.350475,object,place,person,0.0,8.707410000000001,4.0,1.0,7.0360000000000005,2.0,0.0,4.13565,1.0,0.0,1.6366,2.0,1.0,3.4005099999999997,1.0,0.0,1.955745,1.0,0.0,1.0,3.94411
306,grpB,18.0,6.0,DIY,Chair,Beyonce,Wine Cellar,13.71905,3.0,4.09152,23.0,4.0,1.15355,person,object,place,1.0,10.99235,2.0,1.0,2.60488,3.0,1.0,1.929515,4.0,1.0,2.4251099999999997,2.0,1.0,1.435655,1.0,1.0,1.352075,1.0,19.0,1.0,0.301725
306,grpB,5.0,7.0,Party,Satchel,Anne,Bowling,13.549615,2.0,2.1608400000000003,12.0,1.0,0.75772,place,person,object,0.0,3.28494,2.0,0.0,1.762615,4.0,1.0,4.418565,1.0,1.0,2.284775,2.0,1.0,1.68583,1.0,1.0,1.671095,2.0,18.0,1.0,0.51234
306,grpB,14.0,8.0,Relaxing,Stroller,Steve,Ski Slope,7.582985000000001,3.0,7.82781,11.0,3.0,1.225485,place,person,object,1.0,4.735425,1.0,1.0,1.750995,1.0,1.0,1.253525,2.0,1.0,3.18321,2.0,1.0,1.601955,2.0,1.0,1.76659,1.0,7.0,1.0,0.36754499999999996
306,grpB,23.0,9.0,Eating,Hammock,Brad,Restaurant,10.957835000000001,4.0,3.92211,4.0,2.0,1.251535,person,object,place,0.0,6.08608,3.0,0.0,5.033795,1.0,0.0,3.3192699999999995,2.0,1.0,2.4855099999999997,1.0,0.0,3.0505400000000003,1.0,1.0,2.483995,2.0,15.0,1.0,0.413605
306,grpB,3.0,10.0,Music,Bike,Halle,Lighthouse,3.64205,4.0,3.51946,16.0,1.0,2.47626,person,place,object,0.0,3.401465,1.0,0.0,7.506939999999999,4.0,1.0,2.5071,1.0,1.0,4.03302,2.0,0.0,1.02568,1.0,0.0,1.217095,1.0,5.0,1.0,0.768125
306,grpB,10.0,11.0,Work,Easel,Emma,Aquarium,7.09215,3.0,2.8588299999999998,17.0,1.0,0.73528,object,place,person,1.0,3.071615,2.0,1.0,4.170835,4.0,0.0,6.47191,2.0,0.0,2.305375,2.0,0.0,0.970635,1.0,1.0,2.716805,1.0,1.0,1.0,0.555085
306,grpB,16.0,12.0,Winter,Record,Samuel,Dining Room,,2.0,1.808745,3.0,1.0,1.6859650000000002,place,person,object,0.0,12.629539999999999,3.0,0.0,4.59382,4.0,0.0,3.9854849999999997,1.0,1.0,5.01382,1.0,1.0,4.4674949999999995,1.0,1.0,2.75644,1.0,4.0,2.0,1.699575
306,grpB,19.0,13.0,Vacation,Wine,Julia,Pool,4.683244999999999,4.0,3.8565150000000004,13.0,1.0,1.2998450000000001,person,object,place,0.0,5.09169,4.0,1.0,2.75165,4.0,0.0,2.21388,1.0,1.0,1.684425,2.0,1.0,0.723395,1.0,1.0,1.484285,2.0,10.0,1.0,0.45813000000000004
306,grpB,8.0,14.0,Competition,Goggles,Scarlett,Savannah,10.10469,3.0,2.20765,21.0,3.0,1.2681950000000002,place,object,person,1.0,3.592915,1.0,1.0,2.847695,1.0,1.0,2.8995349999999998,4.0,0.0,2.59516,2.0,0.0,1.344135,1.0,0.0,1.53645,2.0,13.0,1.0,0.303475
306,grpB,12.0,15.0,Studying,Trampoline,Ellen,Classroom,8.10501,3.0,3.5356,20.0,1.0,0.718605,place,person,object,1.0,4.969135,4.0,0.0,1.60591,3.0,0.0,4.0418199999999995,2.0,0.0,2.277885,1.0,1.0,1.7116799999999999,2.0,1.0,0.6580199999999999,1.0,3.0,1.0,0.36864
306,grpB,15.0,16.0,Celebration,Football,Meryl,Harbor,4.357775,4.0,2.318435,18.0,1.0,0.74545,object,person,place,1.0,4.6692800000000005,1.0,0.0,3.159,2.0,0.0,3.0056700000000003,1.0,0.0,1.540265,1.0,1.0,3.1928799999999997,1.0,0.0,3.150025,2.0,22.0,1.0,0.73454
306,grpB,22.0,17.0,Travel,Computer,George,Field,10.56137,2.0,3.527025,7.0,3.0,1.32951,object,person,place,1.0,6.701275,4.0,0.0,3.5908300000000004,3.0,1.0,5.196385,1.0,1.0,2.051355,1.0,0.0,2.226455,1.0,0.0,1.0247700000000002,1.0,12.0,1.0,0.860475
306,grpB,20.0,18.0,Friends,Backpack,Chris,Bridge,8.958039999999999,4.0,2.6916349999999998,0.0,5.0,5.872485,object,place,person,1.0,6.550575,3.0,1.0,3.07812,4.0,1.0,2.9593849999999997,2.0,1.0,3.55986,2.0,1.0,2.03441,1.0,1.0,2.274145,1.0,21.0,1.0,0.54455
306,grpB,7.0,19.0,Art,Headphones,Denzel,Avenue,12.266860000000001,3.0,2.62257,1.0,3.0,4.23643,person,object,place,1.0,2.441815,2.0,1.0,0.9717549999999999,2.0,0.0,5.257569999999999,4.0,0.0,1.55988,2.0,0.0,2.050875,1.0,0.0,4.274484999999999,2.0,9.0,1.0,0.8448399999999999
306,grpB,21.0,20.0,Home,Gloves,Angelina,Cabin,11.641435000000001,4.0,2.592215,22.0,1.0,0.91638,place,object,person,1.0,4.15182,2.0,0.0,5.04162,3.0,1.0,2.400615,3.0,0.0,2.003615,2.0,0.0,1.5911950000000001,1.0,0.0,1.932705,1.0,11.0,1.0,0.41101000000000004
306,grpB,17.0,21.0,Summer,Puppy,Sandra,Circus,3.003505,4.0,4.14423,5.0,1.0,1.11665,object,person,place,0.0,7.23412,3.0,0.0,4.354815,1.0,0.0,3.67403,3.0,0.0,2.754695,1.0,1.0,1.9176349999999998,1.0,0.0,1.842915,1.0,8.0,1.0,0.562465
306,grpB,13.0,22.0,Errands,Stopwatch,Tom,Icerink,9.4221,3.0,1.75099,19.0,5.0,1.169645,place,object,person,1.0,3.285615,3.0,1.0,2.6913400000000003,4.0,1.0,0.78595,1.0,1.0,2.502675,1.0,0.0,1.41706,2.0,1.0,2.3228400000000002,2.0,6.0,1.0,0.45028
306,grpB,9.0,23.0,Shopping,Duster,Robert,Kitchen,2.00068,4.0,6.67837,10.0,3.0,1.4058549999999999,place,object,person,1.0,4.542625,4.0,1.0,3.756135,2.0,1.0,1.6609049999999999,1.0,1.0,3.01875,2.0,1.0,0.9029149999999999,1.0,1.0,2.61585,1.0,20.0,2.0,1.567
