participant,expName,event_id,encoding.thisN,theme,object_label,person_label,place_label,resp_encSpace.rt,resp_enc_success.keys,resp_enc_success.rt,retrieval.thisN,resp_ret_vividness.keys,resp_ret_vividness.rt,q1_type,q2_type,q3_type,resp_gistmem1.corr,resp_gistmem1.rt,resp_gistmem1.keys,resp_gistmem2.corr,resp_gistmem2.rt,resp_gistmem2.keys,resp_gistmem3.corr,resp_gistmem3.rt,resp_gistmem3.keys,resp_detailmem1.corr,resp_detailmem1.rt,resp_detailmem1.keys,resp_detailmem2.corr,resp_detailmem2.rt,resp_detailmem2.keys,resp_detailmem3.corr,resp_detailmem3.rt,resp_detailmem3.keys,familiarity.thisN,resp_facefam.keys,resp_facefam.rt
307,grpB,21.0,0.0,Home,Gloves,Angelina,Cabin,13.835999999999999,3.0,4.749,11.0,5.0,1.442,place,object,person,1.0,2.5580000000000003,2.0,1.0,1.268,1.0,1.0,3.033,3.0,1.0,9.007,1.0,1.0,0.8490000000000001,2.0,0.0,1.8519999999999999,1.0,8.0,1.0,0.752
307,grpB,11.0,1.0,Games,Binoculars,Leonardo,Lake,13.116,5.0,1.306,1.0,6.0,2.0909999999999997,object,place,person,1.0,2.6489999999999996,3.0,1.0,1.033,2.0,1.0,2.748,2.0,1.0,1.808,1.0,1.0,1.439,1.0,1.0,2.255,2.0,14.0,1.0,0.662
307,grpB,12.0,2.0,Studying,Trampoline,Ellen,Classroom,13.307,4.0,1.465,17.0,6.0,1.2009999999999998,place,person,object,1.0,2.4819999999999998,4.0,1.0,1.3530000000000002,4.0,1.0,0.8029999999999999,4.0,0.0,1.518,1.0,0.0,2.068,1.0,1.0,0.8170000000000001,1.0,16.0,1.0,0.433
307,grpB,24.0,3.0,Family,Extinguisher,Ryan,Basketball,13.043,3.0,1.9980000000000002,8.0,1.0,0.8909999999999999,person,place,object,0.0,3.451,1.0,0.0,4.575,4.0,0.0,3.0839999999999996,1.0,0.0,2.718,2.0,1.0,2.406,1.0,1.0,2.259,2.0,5.0,3.0,0.619
307,grpB,15.0,4.0,Celebration,Football,Meryl,Harbor,13.692,3.0,1.617,15.0,1.0,0.614,object,person,place,1.0,4.468,1.0,0.0,2.75,4.0,1.0,2.5340000000000003,4.0,1.0,1.5919999999999999,2.0,1.0,2.116,1.0,1.0,1.018,1.0,12.0,1.0,0.47200000000000003
307,grpB,1.0,5.0,Date,Pitcher,Reese,Studio,13.593,4.0,1.682,19.0,3.0,1.2930000000000001,person,place,object,1.0,3.708,3.0,0.0,3.4810000000000003,1.0,1.0,0.856,2.0,1.0,1.9580000000000002,1.0,1.0,3.492,2.0,1.0,1.208,2.0,10.0,2.0,0.9329999999999999
307,grpB,8.0,6.0,Competition,Goggles,Scarlett,Savannah,7.405,2.0,1.3980000000000001,10.0,1.0,0.767,place,object,person,1.0,4.8,1.0,1.0,4.832,1.0,1.0,2.42,4.0,1.0,1.614,1.0,1.0,2.69,2.0,1.0,1.767,1.0,22.0,3.0,0.607
307,grpB,17.0,7.0,Summer,Puppy,Sandra,Circus,13.46,3.0,1.284,14.0,4.0,1.41,object,person,place,1.0,4.803,4.0,0.0,1.62,3.0,1.0,0.741,1.0,1.0,2.499,2.0,0.0,1.3090000000000002,2.0,0.0,1.115,1.0,15.0,2.0,0.8859999999999999
307,grpB,23.0,8.0,Eating,Hammock,Brad,Restaurant,13.427,6.0,1.551,9.0,4.0,1.351,person,object,place,0.0,2.722,4.0,1.0,4.904,3.0,1.0,1.135,3.0,1.0,1.899,1.0,0.0,1.484,1.0,1.0,1.568,2.0,20.0,2.0,0.8390000000000001
307,grpB,7.0,9.0,Art,Headphones,Denzel,Avenue,13.935,5.0,1.5030000000000001,12.0,3.0,1.3259999999999998,person,object,place,0.0,4.5169999999999995,1.0,0.0,4.902,4.0,1.0,2.499,3.0,1.0,1.649,1.0,0.0,1.7480000000000002,1.0,1.0,1.272,1.0,21.0,3.0,0.836
307,grpB,18.0,10.0,DIY,Chair,Beyonce,Wine Cellar,12.385,3.0,1.465,0.0,6.0,2.2319999999999998,person,object,place,1.0,3.272,2.0,1.0,2.905,3.0,1.0,2.191,4.0,1.0,2.9160000000000004,2.0,1.0,1.317,1.0,1.0,1.496,1.0,6.0,1.0,0.502
307,grpB,2.0,11.0,Volunteer,Flowers,Jennifer,Waterfall,13.966,5.0,1.8,22.0,5.0,1.156,person,place,object,0.0,3.758,4.0,1.0,1.138,3.0,1.0,0.735,4.0,1.0,2.905,2.0,1.0,2.787,1.0,0.0,0.871,2.0,19.0,1.0,0.5670000000000001
307,grpB,5.0,12.0,Party,Satchel,Anne,Bowling,12.665999999999999,5.0,1.319,3.0,5.0,2.119,place,person,object,1.0,3.325,3.0,1.0,2.04,3.0,1.0,1.899,1.0,0.0,2.855,1.0,0.0,1.975,2.0,1.0,0.985,2.0,18.0,2.0,1.07
307,grpB,20.0,13.0,Friends,Backpack,Chris,Bridge,11.423,4.0,1.246,6.0,2.0,2.3369999999999997,object,place,person,0.0,2.897,2.0,1.0,1.952,4.0,1.0,1.531,2.0,1.0,1.652,2.0,1.0,0.7340000000000001,1.0,1.0,1.7069999999999999,1.0,23.0,2.0,0.807
307,grpB,14.0,14.0,Relaxing,Stroller,Steve,Ski Slope,13.182,6.0,1.609,13.0,6.0,1.1909999999999998,place,person,object,1.0,2.9160000000000004,1.0,1.0,3.5189999999999997,1.0,1.0,0.8420000000000001,2.0,1.0,1.315,2.0,1.0,4.04,2.0,1.0,0.654,1.0,0.0,1.0,1.9909999999999999
307,grpB,22.0,15.0,Travel,Computer,George,Field,13.685,6.0,3.991,5.0,4.0,1.399,object,person,place,1.0,5.547000000000001,4.0,1.0,2.492,1.0,1.0,1.956,1.0,0.0,2.0340000000000003,2.0,1.0,2.551,2.0,0.0,0.853,1.0,7.0,3.0,1.139
307,grpB,3.0,16.0,Music,Bike,Halle,Lighthouse,13.642000000000001,6.0,0.997,20.0,1.0,0.841,person,place,object,0.0,5.757999999999999,1.0,0.0,15.32,2.0,1.0,1.9240000000000002,1.0,1.0,1.59,2.0,0.0,0.715,1.0,1.0,1.659,2.0,13.0,2.0,1.541
307,grpB,10.0,17.0,Work,Easel,Emma,Aquarium,13.659,4.0,1.338,2.0,3.0,1.018,object,place,person,1.0,5.431,2.0,1.0,1.1740000000000002,4.0,1.0,2.9,4.0,1.0,1.568,1.0,1.0,2.154,2.0,1.0,1.406,1.0,17.0,2.0,1.168
307,grpB,16.0,18.0,Winter,Record,Samuel,Dining Room,12.186,4.0,0.941,18.0,2.0,5.407,place,person,object,1.0,3.884,2.0,1.0,1.2009999999999998,2.0,1.0,1.725,3.0,1.0,1.297,1.0,0.0,2.267,2.0,1.0,1.136,1.0,2.0,3.0,1.465
307,grpB,6.0,19.0,Sightseeing,Ladder,Adam,Beach,13.825,6.0,1.1540000000000001,7.0,6.0,1.225,object,place,person,1.0,2.6,2.0,1.0,1.65,1.0,1.0,0.904,3.0,1.0,2.585,2.0,1.0,2.89,2.0,1.0,1.358,2.0,9.0,1.0,0.466
307,grpB,19.0,20.0,Vacation,Wine,Julia,Pool,12.074000000000002,5.0,1.159,23.0,4.0,1.091,person,object,place,0.0,3.917,2.0,1.0,4.52,4.0,1.0,1.1909999999999998,2.0,1.0,1.733,2.0,1.0,1.505,1.0,1.0,3.866,2.0,11.0,2.0,1.901
307,grpB,13.0,21.0,Errands,Stopwatch,Tom,Icerink,13.636,6.0,1.0190000000000001,16.0,4.0,1.133,place,object,person,1.0,4.768,3.0,1.0,0.772,4.0,1.0,1.7169999999999999,1.0,1.0,1.355,1.0,0.0,2.5980000000000003,2.0,0.0,1.2590000000000001,1.0,3.0,3.0,0.674
307,grpB,4.0,22.0,Exercise,Beachball,Will,Casino,13.824000000000002,2.0,1.385,4.0,4.0,2.248,object,person,place,1.0,2.785,1.0,1.0,2.3169999999999997,2.0,1.0,1.6219999999999999,2.0,0.0,1.249,2.0,0.0,1.891,1.0,1.0,1.807,1.0,4.0,2.0,1.4609999999999999
307,grpB,9.0,23.0,Shopping,Duster,Robert,Kitchen,13.408,5.0,1.19,21.0,6.0,1.8659999999999999,place,object,person,1.0,3.8089999999999997,4.0,1.0,1.255,2.0,1.0,2.549,1.0,1.0,3.438,2.0,1.0,0.9890000000000001,1.0,1.0,1.4340000000000002,1.0,1.0,2.0,1.5719999999999998
