participant,expName,event_id,encoding.thisN,theme,object_label,person_label,place_label,resp_encSpace.rt,resp_enc_success.keys,resp_enc_success.rt,retrieval.thisN,resp_ret_vividness.keys,resp_ret_vividness.rt,q1_type,q2_type,q3_type,resp_gistmem1.corr,resp_gistmem1.rt,resp_gistmem1.keys,resp_gistmem2.corr,resp_gistmem2.rt,resp_gistmem2.keys,resp_gistmem3.corr,resp_gistmem3.rt,resp_gistmem3.keys,resp_detailmem1.corr,resp_detailmem1.rt,resp_detailmem1.keys,resp_detailmem2.corr,resp_detailmem2.rt,resp_detailmem2.keys,resp_detailmem3.corr,resp_detailmem3.rt,resp_detailmem3.keys,familiarity.thisN,resp_facefam.keys,resp_facefam.rt
318,grpA,4.0,0.0,Exercise,Beachball,Will,Casino,13.918,2.0,2.96,9.0,3.0,3.492,object,person,place,1.0,2.826,1.0,1.0,7.051,2.0,1.0,0.675,2.0,0.0,2.542,2.0,1.0,1.483,2.0,1.0,0.8079999999999999,1.0,15.0,1.0,0.633
318,grpA,1.0,1.0,Date,Pitcher,Reese,Studio,13.776,5.0,2.801,17.0,3.0,1.5519999999999998,person,place,object,1.0,4.375,3.0,1.0,1.6569999999999998,3.0,1.0,2.135,2.0,1.0,2.8680000000000003,1.0,1.0,2.8510000000000004,2.0,1.0,1.1159999999999999,2.0,1.0,1.0,1.389
318,grpA,23.0,2.0,Eating,Hammock,Brad,Restaurant,7.694,3.0,1.284,11.0,2.0,1.0170000000000001,person,object,place,1.0,8.384,1.0,1.0,3.4610000000000003,3.0,1.0,3.451,3.0,1.0,1.9909999999999999,1.0,1.0,1.6840000000000002,2.0,1.0,2.386,2.0,8.0,1.0,1.044
318,grpA,15.0,3.0,Celebration,Football,Meryl,Harbor,12.401,4.0,2.2030000000000003,12.0,3.0,1.125,object,person,place,1.0,2.225,1.0,1.0,1.225,3.0,1.0,1.5019999999999998,4.0,1.0,1.1320000000000001,2.0,1.0,0.9179999999999999,1.0,1.0,0.584,1.0,18.0,1.0,0.434
318,grpA,12.0,4.0,Studying,Trampoline,Ellen,Classroom,6.023,5.0,1.273,5.0,4.0,1.867,place,person,object,1.0,3.284,4.0,1.0,1.042,4.0,1.0,1.218,4.0,1.0,4.217,2.0,1.0,1.4680000000000002,2.0,1.0,0.792,1.0,4.0,1.0,0.32799999999999996
318,grpA,17.0,5.0,Summer,Puppy,Sandra,Circus,3.81,6.0,0.5670000000000001,23.0,5.0,1.218,object,person,place,1.0,5.359,4.0,1.0,3.3569999999999998,4.0,1.0,1.1340000000000001,1.0,1.0,3.533,2.0,1.0,1.906,1.0,0.0,0.9490000000000001,1.0,22.0,1.0,0.475
318,grpA,8.0,6.0,Competition,Goggles,Scarlett,Savannah,11.592,2.0,3.508,15.0,3.0,1.5230000000000001,place,object,person,1.0,2.625,1.0,1.0,0.9059999999999999,1.0,1.0,1.11,4.0,1.0,1.9340000000000002,1.0,0.0,2.342,1.0,1.0,3.7680000000000002,1.0,12.0,1.0,0.391
318,grpA,2.0,7.0,Volunteer,Flowers,Jennifer,Waterfall,6.495,6.0,3.492,16.0,2.0,1.1079999999999999,person,place,object,1.0,6.367000000000001,1.0,1.0,3.3739999999999997,3.0,1.0,2.109,4.0,0.0,0.892,1.0,1.0,3.775,1.0,1.0,1.139,1.0,17.0,1.0,0.61
318,grpA,20.0,8.0,Friends,Backpack,Chris,Bridge,4.768,6.0,0.992,0.0,6.0,2.32,object,place,person,1.0,5.55,3.0,1.0,3.3160000000000003,4.0,1.0,2.74,2.0,1.0,3.09,2.0,1.0,2.557,1.0,1.0,2.316,1.0,5.0,1.0,1.083
318,grpA,9.0,9.0,Shopping,Duster,Robert,Kitchen,12.790999999999999,6.0,1.618,21.0,4.0,2.042,place,object,person,1.0,3.9819999999999998,4.0,1.0,1.35,2.0,1.0,0.91,1.0,1.0,3.366,2.0,1.0,1.969,1.0,0.0,2.55,2.0,2.0,1.0,0.39
318,grpA,5.0,10.0,Party,Satchel,Anne,Bowling,3.875,6.0,0.21899999999999997,6.0,3.0,0.9740000000000001,place,person,object,1.0,5.475,3.0,1.0,1.6369999999999998,3.0,1.0,0.55,1.0,1.0,4.385,2.0,1.0,1.619,1.0,1.0,3.661,2.0,19.0,1.0,1.357
318,grpA,13.0,11.0,Errands,Stopwatch,Tom,Icerink,,2.0,1.5530000000000002,18.0,3.0,2.084,place,object,person,1.0,2.291,3.0,1.0,2.475,4.0,1.0,4.7589999999999995,1.0,0.0,3.445,2.0,1.0,0.75,1.0,0.0,1.4180000000000001,1.0,13.0,1.0,0.433
318,grpA,14.0,12.0,Relaxing,Stroller,Steve,Ski Slope,8.582,3.0,0.316,8.0,5.0,1.883,place,person,object,1.0,3.503,1.0,1.0,2.503,1.0,1.0,0.507,2.0,1.0,4.294,2.0,1.0,1.24,2.0,1.0,1.217,1.0,7.0,1.0,0.368
318,grpA,21.0,13.0,Home,Gloves,Angelina,Cabin,7.986000000000001,5.0,0.259,19.0,4.0,1.034,place,object,person,1.0,1.75,2.0,1.0,1.1179999999999999,1.0,1.0,2.772,3.0,1.0,1.034,1.0,1.0,1.018,2.0,0.0,1.5330000000000001,1.0,9.0,1.0,0.508
318,grpA,6.0,14.0,Sightseeing,Ladder,Adam,Beach,7.835,2.0,1.219,22.0,2.0,0.934,object,place,person,1.0,5.1160000000000005,2.0,1.0,5.367000000000001,1.0,1.0,1.273,3.0,0.0,1.8,1.0,1.0,2.434,2.0,1.0,1.217,2.0,20.0,1.0,1.5519999999999998
318,grpA,10.0,15.0,Work,Easel,Emma,Aquarium,5.651,5.0,1.2590000000000001,14.0,4.0,2.926,object,place,person,1.0,4.284,2.0,1.0,1.5590000000000002,4.0,1.0,1.067,4.0,1.0,1.406,1.0,1.0,6.367999999999999,2.0,1.0,1.2990000000000002,1.0,6.0,1.0,0.483
318,grpA,16.0,16.0,Winter,Record,Samuel,Dining Room,12.200999999999999,5.0,0.275,3.0,4.0,1.133,place,person,object,0.0,4.834,1.0,1.0,0.69,2.0,1.0,3.3,3.0,1.0,1.45,1.0,1.0,1.245,1.0,1.0,0.9329999999999999,1.0,10.0,1.0,0.5
318,grpA,24.0,17.0,Family,Extinguisher,Ryan,Basketball,12.708,4.0,0.135,2.0,5.0,1.226,person,place,object,1.0,2.418,4.0,1.0,0.643,2.0,1.0,1.607,3.0,1.0,2.068,1.0,1.0,1.546,1.0,1.0,1.818,2.0,14.0,1.0,0.318
318,grpA,11.0,18.0,Games,Binoculars,Leonardo,Lake,5.6739999999999995,5.0,0.301,13.0,5.0,0.568,object,place,person,1.0,5.318,3.0,1.0,1.391,2.0,1.0,0.8270000000000001,2.0,0.0,2.6519999999999997,2.0,1.0,1.385,1.0,1.0,2.351,2.0,0.0,1.0,2.167
318,grpA,22.0,19.0,Travel,Computer,George,Field,6.944,4.0,0.609,7.0,2.0,1.651,object,person,place,1.0,4.3260000000000005,4.0,1.0,1.2670000000000001,1.0,1.0,1.011,1.0,1.0,1.649,1.0,0.0,2.052,1.0,1.0,2.352,2.0,21.0,1.0,0.324
318,grpA,19.0,20.0,Vacation,Wine,Julia,Pool,4.4830000000000005,6.0,0.145,4.0,5.0,3.943,person,object,place,1.0,5.442,3.0,1.0,1.923,4.0,1.0,0.599,2.0,1.0,2.818,2.0,1.0,4.867,1.0,0.0,1.168,1.0,23.0,1.0,1.024
318,grpA,18.0,21.0,DIY,Chair,Beyonce,Wine Cellar,5.16,1.0,0.21600000000000003,20.0,1.0,1.0090000000000001,person,object,place,1.0,1.3259999999999998,2.0,1.0,4.351,3.0,1.0,1.8259999999999998,4.0,1.0,1.784,2.0,1.0,0.792,1.0,1.0,1.219,1.0,3.0,1.0,0.342
318,grpA,7.0,22.0,Art,Headphones,Denzel,Avenue,9.111,3.0,1.153,10.0,4.0,0.9,person,object,place,1.0,5.925,2.0,1.0,3.26,2.0,1.0,1.306,3.0,1.0,1.358,1.0,1.0,4.035,2.0,1.0,1.984,1.0,16.0,1.0,0.418
318,grpA,3.0,23.0,Music,Bike,Halle,Lighthouse,4.918,6.0,0.133,1.0,6.0,1.569,person,place,object,1.0,3.9610000000000003,4.0,1.0,1.367,1.0,1.0,1.933,1.0,1.0,3.0260000000000002,2.0,1.0,2.891,2.0,0.0,3.5839999999999996,1.0,11.0,1.0,0.49700000000000005
