participant,expName,event_id,encoding.thisN,theme,object_label,person_label,place_label,resp_encSpace.rt,resp_enc_success.keys,resp_enc_success.rt,retrieval.thisN,resp_ret_vividness.keys,resp_ret_vividness.rt,q1_type,q2_type,q3_type,resp_gistmem1.corr,resp_gistmem1.rt,resp_gistmem1.keys,resp_gistmem2.corr,resp_gistmem2.rt,resp_gistmem2.keys,resp_gistmem3.corr,resp_gistmem3.rt,resp_gistmem3.keys,resp_detailmem1.corr,resp_detailmem1.rt,resp_detailmem1.keys,resp_detailmem2.corr,resp_detailmem2.rt,resp_detailmem2.keys,resp_detailmem3.corr,resp_detailmem3.rt,resp_detailmem3.keys,familiarity.thisN,resp_facefam.keys,resp_facefam.rt
329,grpA,20.0,0.0,Friends,Backpack,Chris,Bridge,,5.0,5.59508,1.0,5.0,1.7092599999999998,object,place,person,1.0,6.63571,3.0,1.0,3.08473,4.0,1.0,5.33991,2.0,1.0,2.85239,2.0,1.0,2.934055,1.0,1.0,3.50655,1.0,21.0,1.0,0.509555
329,grpA,3.0,1.0,Music,Bike,Halle,Lighthouse,,6.0,4.1028150000000005,21.0,5.0,2.478675,person,place,object,0.0,5.270935,2.0,1.0,14.175295000000002,1.0,1.0,3.7832449999999995,1.0,1.0,4.92805,2.0,1.0,2.985325,2.0,1.0,5.356395,2.0,14.0,2.0,0.418495
329,grpA,6.0,2.0,Sightseeing,Ladder,Adam,Beach,,6.0,4.8040449999999995,14.0,6.0,1.1590850000000001,object,place,person,1.0,6.862660000000001,2.0,1.0,1.335235,1.0,1.0,1.57606,3.0,1.0,14.915764999999999,2.0,0.0,10.347775,1.0,1.0,2.1527950000000002,2.0,11.0,1.0,0.40936
329,grpA,17.0,3.0,Summer,Puppy,Sandra,Circus,,6.0,1.26942,11.0,5.0,1.82733,object,person,place,1.0,8.939105,4.0,1.0,3.87618,4.0,1.0,2.6276900000000003,1.0,1.0,2.39416,2.0,1.0,2.08639,1.0,1.0,2.98466,2.0,23.0,1.0,0.41148500000000005
329,grpA,19.0,4.0,Vacation,Wine,Julia,Pool,,6.0,1.1186200000000002,8.0,3.0,1.476085,person,object,place,0.0,12.64777,4.0,0.0,5.505294999999999,1.0,1.0,8.12209,2.0,1.0,5.086825,2.0,1.0,1.542625,1.0,0.0,5.22164,1.0,1.0,2.0,1.70098
329,grpA,13.0,5.0,Errands,Stopwatch,Tom,Icerink,,5.0,1.8643150000000002,17.0,6.0,1.458905,place,object,person,1.0,7.43602,3.0,1.0,1.917805,4.0,1.0,3.10305,1.0,1.0,4.05337,1.0,1.0,1.552905,1.0,1.0,4.15912,2.0,19.0,2.0,0.684125
329,grpA,16.0,6.0,Winter,Record,Samuel,Dining Room,,5.0,0.875815,7.0,6.0,1.603205,place,person,object,1.0,7.9466399999999995,2.0,1.0,2.28628,2.0,1.0,1.969545,3.0,1.0,4.026785,1.0,1.0,3.66584,1.0,1.0,2.56184,1.0,6.0,1.0,1.504
329,grpA,12.0,7.0,Studying,Trampoline,Ellen,Classroom,7.478644999999999,6.0,3.229205,18.0,6.0,0.95144,place,person,object,1.0,2.4939299999999998,4.0,1.0,0.65276,4.0,1.0,0.58467,4.0,0.0,4.611865,1.0,1.0,2.335815,2.0,0.0,1.72575,2.0,3.0,1.0,0.407585
329,grpA,8.0,8.0,Competition,Goggles,Scarlett,Savannah,,3.0,2.5684400000000003,20.0,6.0,3.98521,place,object,person,1.0,3.4515599999999997,1.0,1.0,0.46806000000000003,1.0,1.0,2.12596,4.0,1.0,3.03051,1.0,0.0,2.86198,1.0,1.0,3.5108900000000003,1.0,18.0,2.0,1.71927
329,grpA,7.0,9.0,Art,Headphones,Denzel,Avenue,6.831285,5.0,2.1035049999999997,23.0,6.0,1.169325,person,object,place,1.0,6.23798,2.0,1.0,5.037125,2.0,1.0,1.567955,3.0,0.0,6.721005,2.0,0.0,1.493005,1.0,1.0,2.31911,1.0,13.0,2.0,0.510825
329,grpA,1.0,10.0,Date,Pitcher,Reese,Studio,,5.0,1.34414,22.0,6.0,0.9184950000000001,person,place,object,1.0,2.26313,3.0,1.0,1.4898799999999999,3.0,1.0,1.19445,2.0,0.0,3.8700650000000003,2.0,0.0,5.84583,1.0,1.0,1.052095,2.0,12.0,1.0,0.55194
329,grpA,4.0,11.0,Exercise,Beachball,Will,Casino,,4.0,3.269485,4.0,6.0,1.5027549999999998,object,person,place,1.0,6.225715,1.0,1.0,2.57063,2.0,1.0,0.81805,2.0,0.0,8.19541,2.0,0.0,4.778944999999999,1.0,1.0,4.836645,1.0,16.0,1.0,0.50159
329,grpA,10.0,12.0,Work,Easel,Emma,Aquarium,,6.0,1.366235,13.0,6.0,0.985225,object,place,person,1.0,9.916665,2.0,1.0,1.6392349999999998,4.0,1.0,1.1207049999999998,4.0,1.0,1.8015400000000001,1.0,1.0,4.18838,2.0,1.0,4.98881,1.0,5.0,1.0,0.428425
329,grpA,14.0,13.0,Relaxing,Stroller,Steve,Ski Slope,,6.0,0.649775,0.0,6.0,1.935085,place,person,object,1.0,7.555389999999999,1.0,1.0,1.667255,1.0,1.0,2.78516,2.0,1.0,3.8858550000000003,2.0,1.0,4.75433,2.0,1.0,2.58135,1.0,2.0,1.0,0.6177600000000001
329,grpA,23.0,14.0,Eating,Hammock,Brad,Restaurant,,4.0,2.002735,9.0,4.0,1.33512,person,object,place,1.0,5.7361,1.0,1.0,9.264405,3.0,1.0,6.421930000000001,3.0,0.0,4.420465,2.0,0.0,4.319815,1.0,1.0,2.886015,2.0,22.0,1.0,1.302465
329,grpA,5.0,15.0,Party,Satchel,Anne,Bowling,,6.0,0.33425,3.0,5.0,2.258555,place,person,object,1.0,4.826985,3.0,1.0,3.7302199999999996,3.0,1.0,3.65255,1.0,0.0,4.01474,1.0,0.0,5.32041,2.0,1.0,2.06751,2.0,15.0,1.0,0.6021
329,grpA,2.0,16.0,Volunteer,Flowers,Jennifer,Waterfall,,5.0,1.5534299999999999,2.0,5.0,2.425195,person,place,object,1.0,12.03229,1.0,1.0,1.45993,3.0,1.0,2.52063,4.0,0.0,9.45573,1.0,1.0,3.737945,1.0,1.0,3.117595,1.0,17.0,1.0,0.38058000000000003
329,grpA,11.0,17.0,Games,Binoculars,Leonardo,Lake,,5.0,1.21874,15.0,3.0,1.4595799999999999,object,place,person,1.0,8.709645,3.0,1.0,5.752455,2.0,1.0,2.787625,2.0,0.0,1.83687,2.0,1.0,3.131205,1.0,1.0,1.60924,2.0,10.0,1.0,0.5024850000000001
329,grpA,18.0,18.0,DIY,Chair,Beyonce,Wine Cellar,,5.0,1.7843950000000002,12.0,6.0,1.0352700000000001,person,object,place,1.0,4.560565,2.0,1.0,1.7338200000000001,3.0,1.0,1.470345,4.0,1.0,2.785675,2.0,1.0,2.84417,1.0,1.0,3.387515,1.0,4.0,1.0,0.48258500000000004
329,grpA,22.0,19.0,Travel,Computer,George,Field,,6.0,1.068465,5.0,5.0,2.1357150000000003,object,person,place,1.0,6.938460000000001,4.0,1.0,11.080589999999999,1.0,1.0,3.42055,1.0,1.0,5.8202050000000005,1.0,0.0,5.24541,1.0,1.0,2.91949,2.0,0.0,2.0,3.31081
329,grpA,24.0,20.0,Family,Extinguisher,Ryan,Basketball,,6.0,2.5434799999999997,6.0,3.0,2.2262150000000003,person,place,object,0.0,14.900170000000001,2.0,0.0,7.653860000000001,1.0,1.0,13.3036,3.0,1.0,9.339055,1.0,1.0,1.635775,1.0,1.0,5.353625,2.0,8.0,1.0,2.102655
329,grpA,21.0,21.0,Home,Gloves,Angelina,Cabin,,5.0,1.2718200000000002,16.0,5.0,1.35309,place,object,person,1.0,4.2878050000000005,2.0,1.0,7.252619999999999,1.0,0.0,2.704755,2.0,1.0,2.6175900000000003,1.0,1.0,1.8082,2.0,1.0,5.64421,2.0,9.0,1.0,0.618795
329,grpA,9.0,22.0,Shopping,Duster,Robert,Kitchen,11.589795,6.0,0.8477049999999999,10.0,5.0,1.752515,place,object,person,1.0,7.0046550000000005,4.0,1.0,2.651585,2.0,1.0,2.719315,1.0,1.0,6.9070800000000006,2.0,1.0,3.319625,1.0,0.0,5.0115300000000005,2.0,20.0,1.0,1.034
329,grpA,15.0,23.0,Celebration,Football,Meryl,Harbor,,6.0,1.2017200000000001,19.0,6.0,0.7608,object,person,place,1.0,7.373195,1.0,1.0,0.9866450000000001,3.0,1.0,1.901155,4.0,1.0,3.51874,2.0,0.0,3.781525,2.0,1.0,2.07544,1.0,7.0,1.0,0.6851649999999999
