participant,expName,event_id,encoding.thisN,theme,object_label,person_label,place_label,resp_encSpace.rt,resp_enc_success.keys,resp_enc_success.rt,retrieval.thisN,resp_ret_vividness.keys,resp_ret_vividness.rt,q1_type,q2_type,q3_type,resp_gistmem1.corr,resp_gistmem1.rt,resp_gistmem1.keys,resp_gistmem2.corr,resp_gistmem2.rt,resp_gistmem2.keys,resp_gistmem3.corr,resp_gistmem3.rt,resp_gistmem3.keys,resp_detailmem1.corr,resp_detailmem1.rt,resp_detailmem1.keys,resp_detailmem2.corr,resp_detailmem2.rt,resp_detailmem2.keys,resp_detailmem3.corr,resp_detailmem3.rt,resp_detailmem3.keys,familiarity.thisN,resp_facefam.keys,resp_facefam.rt
330,grpA,18.0,0.0,DIY,Chair,Beyonce,Wine Cellar,,3.0,3.60115,19.0,5.0,2.03336,person,object,place,1.0,6.506885,2.0,1.0,2.1338049999999997,3.0,1.0,1.05911,4.0,1.0,2.0356400000000003,2.0,1.0,3.2511650000000003,1.0,1.0,2.584115,1.0,1.0,1.0,2.5183
330,grpA,12.0,1.0,Studying,Trampoline,Ellen,Classroom,12.204939999999999,5.0,3.00223,13.0,5.0,1.25243,place,person,object,1.0,5.075875,4.0,1.0,1.551855,4.0,1.0,3.4345,4.0,1.0,2.94418,2.0,1.0,1.7254900000000002,2.0,1.0,1.403615,1.0,3.0,1.0,1.051325
330,grpA,7.0,2.0,Art,Headphones,Denzel,Avenue,12.154035,4.0,2.23442,23.0,5.0,2.06679,person,object,place,1.0,2.3341,2.0,1.0,0.9558200000000001,2.0,1.0,5.8606050000000005,3.0,1.0,1.18477,1.0,0.0,5.091305,1.0,1.0,1.60226,1.0,17.0,1.0,1.5761450000000001
330,grpA,22.0,3.0,Travel,Computer,George,Field,,6.0,0.855865,22.0,5.0,1.603435,object,person,place,1.0,6.520225,4.0,1.0,3.11679,1.0,1.0,3.451945,1.0,1.0,3.022225,1.0,1.0,2.55146,2.0,1.0,1.302185,2.0,11.0,1.0,1.46109
330,grpA,10.0,4.0,Work,Easel,Emma,Aquarium,,5.0,1.128855,16.0,4.0,1.19192,object,place,person,1.0,7.45303,2.0,1.0,1.5052450000000002,4.0,1.0,1.243865,4.0,1.0,1.222515,1.0,1.0,1.0388950000000001,2.0,1.0,3.243595,1.0,10.0,1.0,1.00221
330,grpA,16.0,5.0,Winter,Record,Samuel,Dining Room,,6.0,0.67297,1.0,4.0,2.63508,place,person,object,1.0,12.55696,2.0,1.0,3.78413,2.0,0.0,2.969795,4.0,1.0,1.7940049999999998,1.0,1.0,2.33949,1.0,1.0,1.19567,1.0,21.0,1.0,0.82949
330,grpA,11.0,6.0,Games,Binoculars,Leonardo,Lake,,3.0,1.8697150000000002,21.0,2.0,2.35079,object,place,person,0.0,18.457395,1.0,0.0,3.9041550000000003,4.0,1.0,2.785405,2.0,1.0,6.82084,1.0,1.0,1.5266,1.0,0.0,3.9685449999999998,1.0,8.0,1.0,1.35406
330,grpA,20.0,7.0,Friends,Backpack,Chris,Bridge,,3.0,1.2725,20.0,5.0,3.47535,object,place,person,1.0,4.425905,3.0,1.0,1.3204799999999999,4.0,1.0,1.023085,2.0,1.0,2.188825,2.0,1.0,0.85767,1.0,1.0,1.79167,1.0,4.0,1.0,0.96657
330,grpA,2.0,8.0,Volunteer,Flowers,Jennifer,Waterfall,,4.0,0.9048649999999999,4.0,5.0,4.60232,person,place,object,1.0,4.301125,1.0,1.0,2.286325,3.0,1.0,1.518145,4.0,1.0,4.158415,2.0,1.0,1.88378,1.0,1.0,1.402385,1.0,7.0,1.0,1.183925
330,grpA,17.0,9.0,Summer,Puppy,Sandra,Circus,,5.0,1.323035,9.0,4.0,2.37456,object,person,place,1.0,4.95019,4.0,1.0,9.302760000000001,4.0,1.0,3.2522349999999998,1.0,0.0,2.67298,1.0,1.0,1.76435,1.0,1.0,2.8961799999999998,2.0,9.0,1.0,1.10083
330,grpA,9.0,10.0,Shopping,Duster,Robert,Kitchen,,5.0,0.73744,10.0,5.0,1.5582200000000002,place,object,person,1.0,5.15781,4.0,1.0,1.90858,2.0,1.0,1.95439,1.0,1.0,4.03411,2.0,1.0,1.8908650000000002,1.0,1.0,1.21736,1.0,6.0,1.0,1.32036
330,grpA,14.0,11.0,Relaxing,Stroller,Steve,Ski Slope,,2.0,0.85546,18.0,5.0,1.7616349999999998,place,person,object,1.0,5.217205,1.0,1.0,0.884445,1.0,1.0,1.48635,2.0,1.0,1.2395450000000001,2.0,1.0,2.0018849999999997,2.0,1.0,1.7353150000000002,1.0,23.0,1.0,0.741405
330,grpA,3.0,12.0,Music,Bike,Halle,Lighthouse,,5.0,1.16093,14.0,6.0,1.238265,person,place,object,1.0,2.869265,4.0,1.0,0.986875,1.0,1.0,6.09625,1.0,1.0,2.28607,2.0,1.0,1.82465,2.0,1.0,1.6681849999999998,2.0,18.0,1.0,1.5385
330,grpA,19.0,13.0,Vacation,Wine,Julia,Pool,,6.0,0.305125,0.0,3.0,3.268985,person,object,place,1.0,10.28567,3.0,1.0,3.46861,4.0,1.0,2.71267,2.0,1.0,2.78415,2.0,1.0,1.83433,1.0,1.0,1.5230299999999999,2.0,14.0,1.0,1.634205
330,grpA,8.0,14.0,Competition,Goggles,Scarlett,Savannah,,1.0,0.45235,8.0,6.0,1.46905,place,object,person,1.0,2.553465,1.0,1.0,1.5840100000000001,1.0,1.0,1.803405,4.0,1.0,2.272175,1.0,1.0,5.05152,2.0,1.0,2.4502349999999997,1.0,5.0,1.0,1.03436
330,grpA,5.0,15.0,Party,Satchel,Anne,Bowling,,4.0,1.756445,7.0,5.0,1.728315,place,person,object,1.0,3.232385,3.0,1.0,1.668365,3.0,1.0,1.28496,1.0,1.0,3.852845,2.0,1.0,2.568045,1.0,1.0,1.151985,2.0,15.0,1.0,1.150855
330,grpA,21.0,16.0,Home,Gloves,Angelina,Cabin,,3.0,1.2666899999999999,5.0,4.0,1.568535,place,object,person,1.0,3.219495,2.0,1.0,2.2222150000000003,1.0,1.0,3.5840400000000003,3.0,1.0,2.43407,1.0,1.0,1.7348150000000002,2.0,1.0,5.67485,2.0,19.0,1.0,6.267545
330,grpA,23.0,17.0,Eating,Hammock,Brad,Restaurant,,4.0,1.305005,2.0,5.0,2.03589,person,object,place,1.0,7.569495,1.0,1.0,1.917675,3.0,1.0,1.95553,3.0,1.0,4.2175650000000005,1.0,1.0,2.433185,2.0,1.0,1.5929200000000001,2.0,2.0,1.0,1.2038200000000001
330,grpA,6.0,18.0,Sightseeing,Ladder,Adam,Beach,,4.0,1.0050649999999999,3.0,5.0,2.134855,object,place,person,1.0,5.195119999999999,2.0,1.0,1.5843399999999999,1.0,1.0,1.05677,3.0,1.0,4.2020599999999995,2.0,1.0,3.8423,2.0,1.0,1.453075,2.0,0.0,1.0,1.85086
330,grpA,24.0,19.0,Family,Extinguisher,Ryan,Basketball,,3.0,1.01014,11.0,4.0,1.32876,person,place,object,1.0,22.07098,4.0,1.0,0.9270700000000001,2.0,1.0,2.0764099999999996,3.0,1.0,2.443365,1.0,1.0,0.9853049999999999,1.0,1.0,2.13428,2.0,16.0,1.0,1.09349
330,grpA,13.0,20.0,Errands,Stopwatch,Tom,Icerink,,2.0,2.52637,17.0,5.0,1.304965,place,object,person,1.0,4.642315,3.0,1.0,2.0262700000000002,4.0,1.0,0.8927,1.0,1.0,3.290075,1.0,1.0,2.64052,1.0,1.0,2.15908,2.0,12.0,1.0,1.177705
330,grpA,1.0,21.0,Date,Pitcher,Reese,Studio,,3.0,1.49435,15.0,6.0,1.33681,person,place,object,1.0,3.4195349999999998,3.0,1.0,1.8047,3.0,1.0,1.259585,2.0,1.0,1.45295,1.0,1.0,2.217715,2.0,1.0,2.91752,2.0,20.0,1.0,3.58509
330,grpA,15.0,22.0,Celebration,Football,Meryl,Harbor,,4.0,1.0207,6.0,6.0,1.2178799999999999,object,person,place,1.0,2.8183,1.0,1.0,0.82799,3.0,1.0,1.5372649999999999,4.0,1.0,1.302335,2.0,1.0,0.99345,1.0,1.0,1.8369,1.0,13.0,1.0,1.8603
330,grpA,4.0,23.0,Exercise,Beachball,Will,Casino,,3.0,1.2511299999999999,12.0,6.0,1.4956450000000001,object,person,place,1.0,2.31986,1.0,1.0,2.5836650000000003,2.0,1.0,1.16714,2.0,1.0,3.402875,1.0,0.0,3.706675,1.0,1.0,1.8101650000000002,1.0,22.0,1.0,1.07324
