participant,expName,event_id,encoding.thisN,theme,object_label,person_label,place_label,resp_encSpace.rt,resp_enc_success.keys,resp_enc_success.rt,retrieval.thisN,resp_ret_vividness.keys,resp_ret_vividness.rt,q1_type,q2_type,q3_type,resp_gistmem1.corr,resp_gistmem1.rt,resp_gistmem1.keys,resp_gistmem2.corr,resp_gistmem2.rt,resp_gistmem2.keys,resp_gistmem3.corr,resp_gistmem3.rt,resp_gistmem3.keys,resp_detailmem1.corr,resp_detailmem1.rt,resp_detailmem1.keys,resp_detailmem2.corr,resp_detailmem2.rt,resp_detailmem2.keys,resp_detailmem3.corr,resp_detailmem3.rt,resp_detailmem3.keys,familiarity.thisN,resp_facefam.keys,resp_facefam.rt
356,grpB,8.0,0.0,Competition,Goggles,Scarlett,Savannah,,5.0,7.2705,5.0,6.0,1.13805,place,object,person,1.0,2.558935,1.0,1.0,2.10583,1.0,1.0,4.6348,4.0,0.0,10.99869,2.0,1.0,1.9219400000000002,2.0,1.0,1.13729,1.0,16.0,1.0,0.27231500000000003
356,grpB,2.0,1.0,Volunteer,Flowers,Jennifer,Waterfall,,3.0,1.973425,23.0,6.0,0.9633149999999999,person,place,object,1.0,1.8571099999999998,1.0,1.0,1.294825,3.0,1.0,0.923955,4.0,1.0,2.0108099999999998,2.0,1.0,5.071845,1.0,1.0,1.07651,1.0,23.0,1.0,0.48626
356,grpB,9.0,2.0,Shopping,Duster,Robert,Kitchen,10.680955,6.0,3.4809400000000004,17.0,6.0,1.289755,place,object,person,1.0,12.407435000000001,4.0,1.0,0.971195,2.0,1.0,10.207835000000001,1.0,1.0,10.414695,2.0,1.0,0.8192200000000001,1.0,0.0,1.544395,2.0,5.0,1.0,0.32372
356,grpB,20.0,3.0,Friends,Backpack,Chris,Bridge,8.52802,4.0,3.66309,3.0,6.0,3.6026849999999997,object,place,person,1.0,4.09831,3.0,1.0,1.9666099999999997,4.0,1.0,0.66382,2.0,1.0,1.8572849999999999,2.0,1.0,6.586614999999999,1.0,0.0,2.3407400000000003,2.0,13.0,1.0,0.21781999999999999
356,grpB,21.0,4.0,Home,Gloves,Angelina,Cabin,10.27098,6.0,2.390715,8.0,6.0,1.3802450000000002,place,object,person,1.0,3.86372,2.0,1.0,0.92835,1.0,0.0,1.02023,4.0,1.0,6.904265,1.0,1.0,1.5099200000000002,2.0,1.0,3.118005,2.0,21.0,1.0,0.36849
356,grpB,14.0,5.0,Relaxing,Stroller,Steve,Ski Slope,,5.0,3.02883,13.0,4.0,1.43802,place,person,object,1.0,3.9121,1.0,1.0,1.162085,1.0,1.0,0.73811,2.0,1.0,5.583425,2.0,1.0,5.301465,2.0,1.0,1.4960799999999999,1.0,1.0,1.0,0.41886999999999996
356,grpB,13.0,6.0,Errands,Stopwatch,Tom,Icerink,,3.0,1.67713,12.0,6.0,1.337645,place,object,person,1.0,2.7785599999999997,3.0,1.0,2.809475,4.0,1.0,1.102635,1.0,0.0,8.824264999999999,2.0,0.0,2.0897900000000003,2.0,0.0,1.179635,1.0,22.0,1.0,0.318695
356,grpB,23.0,7.0,Eating,Hammock,Brad,Restaurant,10.12932,6.0,2.0055650000000003,0.0,6.0,1.588985,person,object,place,1.0,11.72208,1.0,1.0,3.6771949999999998,3.0,1.0,4.79655,3.0,0.0,3.0918,2.0,1.0,3.630175,2.0,1.0,2.08321,2.0,9.0,1.0,0.15190499999999998
356,grpB,1.0,8.0,Date,Pitcher,Reese,Studio,8.49892,6.0,1.8553400000000002,19.0,6.0,0.9896450000000001,person,place,object,1.0,1.73878,3.0,1.0,1.7743799999999998,3.0,1.0,0.96296,2.0,1.0,1.741905,1.0,0.0,4.249725,1.0,1.0,2.425695,2.0,20.0,1.0,0.369055
356,grpB,5.0,9.0,Party,Satchel,Anne,Bowling,,3.0,3.194265,7.0,4.0,1.3425049999999998,place,person,object,1.0,6.45233,3.0,1.0,0.771965,3.0,1.0,0.903475,1.0,0.0,6.157394999999999,1.0,1.0,3.6770300000000002,1.0,1.0,1.4214149999999999,2.0,2.0,1.0,0.544075
356,grpB,7.0,10.0,Art,Headphones,Denzel,Avenue,10.714865,6.0,1.057735,4.0,6.0,1.42421,person,object,place,0.0,3.643275,1.0,1.0,13.31429,2.0,1.0,0.9396049999999999,3.0,1.0,3.3515349999999997,1.0,0.0,2.03986,1.0,1.0,1.7729700000000002,1.0,4.0,1.0,0.569335
356,grpB,15.0,11.0,Celebration,Football,Meryl,Harbor,12.64118,6.0,7.738410000000001,9.0,6.0,1.23902,object,person,place,1.0,2.0482549999999997,1.0,1.0,1.0543799999999999,3.0,1.0,7.4033,4.0,1.0,2.88561,2.0,1.0,1.3196299999999999,1.0,1.0,1.705075,1.0,19.0,1.0,0.25709
356,grpB,24.0,12.0,Family,Extinguisher,Ryan,Basketball,12.81963,6.0,1.4603700000000002,14.0,2.0,1.9401099999999998,person,place,object,1.0,22.143945000000002,4.0,0.0,5.38164,3.0,1.0,6.4107199999999995,3.0,1.0,2.448315,1.0,1.0,4.438775,1.0,1.0,0.9209149999999999,2.0,0.0,1.0,2.5408
356,grpB,6.0,13.0,Sightseeing,Ladder,Adam,Beach,,5.0,4.330605,1.0,4.0,1.9586400000000002,object,place,person,1.0,4.93156,2.0,1.0,2.890415,1.0,1.0,2.611065,3.0,0.0,2.86769,1.0,1.0,4.126775,2.0,1.0,4.16134,2.0,3.0,1.0,0.31856999999999996
356,grpB,16.0,14.0,Winter,Record,Samuel,Dining Room,12.238005000000001,6.0,5.28314,10.0,3.0,3.35035,place,person,object,1.0,5.2994900000000005,2.0,1.0,7.478510000000001,2.0,1.0,1.7761,3.0,0.0,7.4928300000000005,2.0,1.0,0.97544,1.0,1.0,1.6553849999999999,1.0,14.0,1.0,0.221715
356,grpB,10.0,15.0,Work,Easel,Emma,Aquarium,,3.0,2.059775,20.0,6.0,1.2041950000000001,object,place,person,1.0,2.32423,2.0,1.0,2.29007,4.0,1.0,0.89265,4.0,1.0,1.463065,1.0,1.0,3.5839,2.0,1.0,1.024665,1.0,12.0,1.0,0.218475
356,grpB,11.0,16.0,Games,Binoculars,Leonardo,Lake,6.775589999999999,6.0,2.408215,22.0,3.0,0.926265,object,place,person,1.0,5.71805,3.0,1.0,2.4917,2.0,1.0,3.349935,2.0,0.0,1.5404950000000002,2.0,0.0,3.6269949999999995,2.0,0.0,4.662535,1.0,18.0,1.0,0.23571
356,grpB,18.0,17.0,DIY,Chair,Beyonce,Wine Cellar,6.351465,6.0,3.715415,6.0,6.0,1.3612799999999998,person,object,place,1.0,1.997555,2.0,1.0,6.1437800000000005,3.0,1.0,1.7427400000000002,4.0,1.0,3.702225,2.0,0.0,4.82257,2.0,1.0,2.429325,1.0,15.0,1.0,0.239235
356,grpB,19.0,18.0,Vacation,Wine,Julia,Pool,9.00977,6.0,1.120095,15.0,2.0,1.030325,person,object,place,0.0,12.60339,2.0,0.0,4.077655,2.0,1.0,4.98032,2.0,1.0,1.60737,2.0,1.0,2.09369,1.0,1.0,2.356845,2.0,6.0,1.0,0.27441
356,grpB,22.0,19.0,Travel,Computer,George,Field,10.182035,6.0,1.6086850000000001,18.0,6.0,1.00883,object,person,place,1.0,5.784105,4.0,1.0,0.603295,1.0,1.0,2.32194,1.0,1.0,2.69358,1.0,0.0,3.86271,1.0,1.0,1.9229,2.0,17.0,1.0,0.2508
356,grpB,12.0,20.0,Studying,Trampoline,Ellen,Classroom,,3.0,2.245895,2.0,6.0,1.48843,place,person,object,1.0,3.6970949999999996,4.0,1.0,1.059785,4.0,1.0,1.6285,4.0,0.0,3.12482,1.0,1.0,2.841745,2.0,1.0,2.847425,1.0,8.0,1.0,0.184005
356,grpB,3.0,21.0,Music,Bike,Halle,Lighthouse,4.74918,6.0,0.860275,21.0,2.0,1.855995,person,place,object,1.0,10.346085,4.0,1.0,8.076885,1.0,1.0,5.15104,1.0,1.0,2.673875,2.0,1.0,5.14907,2.0,1.0,2.111525,2.0,10.0,1.0,0.199955
356,grpB,4.0,22.0,Exercise,Beachball,Will,Casino,,2.0,1.95885,11.0,4.0,1.43826,object,person,place,1.0,5.336075,1.0,1.0,1.506135,2.0,1.0,1.490315,2.0,1.0,1.561815,1.0,0.0,4.6452599999999995,1.0,1.0,6.30081,1.0,7.0,1.0,0.451875
356,grpB,17.0,23.0,Summer,Puppy,Sandra,Circus,10.563425,4.0,0.9702850000000001,16.0,1.0,1.130725,object,person,place,1.0,10.662575,4.0,1.0,5.281285,4.0,1.0,2.7283,1.0,1.0,1.75852,2.0,1.0,1.17862,1.0,1.0,1.741005,2.0,11.0,1.0,0.226385
