participant,expName,event_id,encoding.thisN,theme,object_label,person_label,place_label,resp_encSpace.rt,resp_enc_success.keys,resp_enc_success.rt,retrieval.thisN,resp_ret_vividness.keys,resp_ret_vividness.rt,q1_type,q2_type,q3_type,resp_gistmem1.corr,resp_gistmem1.rt,resp_gistmem1.keys,resp_gistmem2.corr,resp_gistmem2.rt,resp_gistmem2.keys,resp_gistmem3.corr,resp_gistmem3.rt,resp_gistmem3.keys,resp_detailmem1.corr,resp_detailmem1.rt,resp_detailmem1.keys,resp_detailmem2.corr,resp_detailmem2.rt,resp_detailmem2.keys,resp_detailmem3.corr,resp_detailmem3.rt,resp_detailmem3.keys,familiarity.thisN,resp_facefam.keys,resp_facefam.rt
357,grpA,11.0,0.0,Games,Binoculars,Leonardo,Lake,,5.0,7.1745149999999995,14.0,1.0,0.801595,object,place,person,0.0,12.08582,4.0,0.0,12.53674,4.0,1.0,7.324355000000001,2.0,1.0,2.2683150000000003,1.0,1.0,3.8347949999999997,1.0,1.0,1.3701450000000002,2.0,4.0,1.0,1.117275
357,grpA,4.0,1.0,Exercise,Beachball,Will,Casino,11.95225,4.0,6.0063949999999995,22.0,2.0,3.101275,object,person,place,1.0,9.853155000000001,1.0,1.0,5.6052,2.0,1.0,4.925590000000001,2.0,0.0,4.377105,2.0,1.0,1.824185,2.0,1.0,1.838275,1.0,21.0,2.0,2.1623799999999997
357,grpA,3.0,2.0,Music,Bike,Halle,Lighthouse,13.30591,6.0,1.97558,18.0,3.0,1.9211049999999998,person,place,object,0.0,8.6937,2.0,1.0,7.489675,1.0,1.0,1.1270850000000001,1.0,1.0,2.100845,2.0,0.0,5.686535,1.0,1.0,3.604115,2.0,14.0,3.0,1.2385549999999999
357,grpA,18.0,3.0,DIY,Chair,Beyonce,Wine Cellar,12.33414,6.0,2.5243849999999997,0.0,4.0,3.053715,person,object,place,1.0,8.88556,2.0,1.0,10.33579,3.0,1.0,3.01721,4.0,1.0,1.9669,2.0,1.0,3.0537650000000003,1.0,1.0,7.332514999999999,1.0,20.0,1.0,0.8960799999999999
357,grpA,10.0,4.0,Work,Easel,Emma,Aquarium,12.763635,6.0,5.87354,15.0,1.0,0.88605,object,place,person,1.0,12.240689999999999,2.0,1.0,5.21817,4.0,1.0,4.89105,4.0,1.0,2.135895,1.0,1.0,4.395725,2.0,1.0,1.6778099999999998,1.0,8.0,1.0,0.757185
357,grpA,7.0,5.0,Art,Headphones,Denzel,Avenue,6.585755000000001,5.0,3.1843,12.0,1.0,1.1849299999999998,person,object,place,1.0,10.069395,2.0,1.0,5.76883,2.0,1.0,4.291265,3.0,0.0,3.2513,2.0,1.0,3.672125,2.0,1.0,4.751545,1.0,2.0,3.0,5.0118599999999995
357,grpA,24.0,6.0,Family,Extinguisher,Ryan,Basketball,8.75146,6.0,2.852125,16.0,3.0,1.43777,person,place,object,1.0,9.390675,4.0,1.0,7.784464999999999,2.0,1.0,1.096865,3.0,1.0,2.58405,1.0,1.0,1.5009649999999999,1.0,1.0,2.0780000000000003,2.0,3.0,2.0,4.98807
357,grpA,12.0,7.0,Studying,Trampoline,Ellen,Classroom,9.65676,6.0,1.116815,19.0,4.0,2.3523400000000003,place,person,object,1.0,4.518330000000001,4.0,1.0,1.60037,4.0,1.0,1.82765,4.0,1.0,3.902725,2.0,1.0,2.5552650000000003,2.0,1.0,3.1072599999999997,1.0,18.0,1.0,0.673265
357,grpA,23.0,8.0,Eating,Hammock,Brad,Restaurant,9.238135,4.0,2.389275,3.0,2.0,2.366625,person,object,place,0.0,16.30451,4.0,1.0,9.627180000000001,3.0,1.0,4.418585,3.0,1.0,4.86815,1.0,0.0,8.151264999999999,1.0,1.0,5.17901,2.0,7.0,2.0,3.8368599999999997
357,grpA,9.0,9.0,Shopping,Duster,Robert,Kitchen,10.473705,5.0,1.557595,8.0,4.0,1.48403,place,object,person,1.0,11.904285,4.0,1.0,2.99985,2.0,1.0,2.1057650000000003,1.0,0.0,7.7713350000000005,1.0,1.0,6.05159,1.0,1.0,2.51785,1.0,17.0,1.0,0.73451
357,grpA,13.0,10.0,Errands,Stopwatch,Tom,Icerink,,1.0,1.592905,2.0,3.0,3.85175,place,object,person,1.0,9.37604,3.0,1.0,5.50778,4.0,1.0,19.290025,1.0,1.0,8.95893,1.0,1.0,1.225535,1.0,0.0,10.840635,1.0,6.0,1.0,1.2021
357,grpA,1.0,11.0,Date,Pitcher,Reese,Studio,8.50576,3.0,2.817935,21.0,1.0,0.65475,person,place,object,1.0,8.322389999999999,3.0,0.0,6.585225,2.0,1.0,3.7883949999999995,2.0,1.0,3.17036,1.0,1.0,7.57092,2.0,1.0,6.804239999999999,2.0,12.0,1.0,1.08446
357,grpA,5.0,12.0,Party,Satchel,Anne,Bowling,11.21879,5.0,1.95612,23.0,3.0,1.428765,place,person,object,1.0,4.63911,3.0,1.0,0.9015350000000001,3.0,1.0,1.7032599999999998,1.0,0.0,3.72211,1.0,1.0,1.3867200000000002,1.0,1.0,1.917975,2.0,13.0,1.0,0.83526
357,grpA,15.0,13.0,Celebration,Football,Meryl,Harbor,10.535364999999999,3.0,2.13457,9.0,2.0,2.543555,object,person,place,1.0,9.268130000000001,1.0,1.0,3.4527,3.0,1.0,5.95644,4.0,1.0,6.31853,2.0,1.0,2.44495,1.0,1.0,4.489315,1.0,16.0,1.0,0.79037
357,grpA,8.0,14.0,Competition,Goggles,Scarlett,Savannah,13.268125,5.0,1.932985,4.0,4.0,3.130705,place,object,person,1.0,5.558225,1.0,1.0,4.5681400000000005,1.0,1.0,1.5847799999999999,4.0,1.0,2.4842299999999997,1.0,1.0,2.33492,2.0,1.0,1.534435,1.0,19.0,1.0,0.6575
357,grpA,6.0,15.0,Sightseeing,Ladder,Adam,Beach,6.51855,4.0,2.035085,11.0,4.0,4.624585,object,place,person,1.0,6.242525,2.0,1.0,1.13471,1.0,1.0,1.7707700000000002,3.0,1.0,1.6699650000000001,2.0,1.0,5.009180000000001,2.0,1.0,1.4487299999999999,2.0,23.0,1.0,1.6687299999999998
357,grpA,22.0,16.0,Travel,Computer,George,Field,4.58471,6.0,1.217425,10.0,3.0,2.670605,object,person,place,1.0,16.58158,4.0,1.0,5.418105000000001,1.0,1.0,6.041775,1.0,1.0,1.623905,1.0,1.0,3.3208949999999997,2.0,1.0,5.289969999999999,2.0,11.0,1.0,1.5855
357,grpA,19.0,17.0,Vacation,Wine,Julia,Pool,4.70723,6.0,1.986205,5.0,1.0,2.1676450000000003,person,object,place,1.0,30.404759999999996,3.0,1.0,7.627305000000001,4.0,1.0,7.3091,2.0,1.0,3.1596,2.0,1.0,4.059419999999999,1.0,0.0,5.306845,1.0,5.0,3.0,3.536515
357,grpA,17.0,18.0,Summer,Puppy,Sandra,Circus,6.95874,5.0,1.40717,7.0,1.0,1.356355,object,person,place,1.0,15.9413,4.0,1.0,9.36917,4.0,0.0,10.010394999999999,4.0,1.0,3.2933,2.0,1.0,3.3903800000000004,1.0,0.0,3.877505,1.0,10.0,3.0,2.0343150000000003
357,grpA,21.0,19.0,Home,Gloves,Angelina,Cabin,7.360955000000001,5.0,1.5507950000000001,1.0,4.0,3.4184,place,object,person,1.0,7.14237,2.0,1.0,4.422765,1.0,1.0,3.728535,3.0,1.0,1.91868,1.0,1.0,1.60148,2.0,1.0,1.3262399999999999,2.0,0.0,1.0,3.63869
357,grpA,16.0,20.0,Winter,Record,Samuel,Dining Room,10.28837,5.0,2.55131,6.0,4.0,1.293675,place,person,object,1.0,11.426395,2.0,1.0,1.68682,2.0,1.0,4.85746,3.0,1.0,7.1517,1.0,1.0,1.96777,1.0,1.0,6.089175,1.0,9.0,1.0,3.48843
357,grpA,14.0,21.0,Relaxing,Stroller,Steve,Ski Slope,,1.0,1.66998,17.0,1.0,0.810575,place,person,object,0.0,5.653125,3.0,0.0,4.692159999999999,3.0,1.0,9.49032,2.0,1.0,3.26091,2.0,1.0,1.7727700000000002,2.0,1.0,2.2248650000000003,1.0,15.0,3.0,1.02009
357,grpA,20.0,22.0,Friends,Backpack,Chris,Bridge,4.18529,6.0,1.5432549999999998,13.0,2.0,1.4877,object,place,person,1.0,10.787185000000001,3.0,1.0,10.335995,4.0,1.0,1.9538099999999998,2.0,1.0,2.52177,2.0,1.0,3.6848449999999997,1.0,1.0,1.7225849999999998,1.0,22.0,1.0,0.54142
357,grpA,2.0,23.0,Volunteer,Flowers,Jennifer,Waterfall,6.708264999999999,5.0,1.43678,20.0,4.0,1.200085,person,place,object,1.0,8.128635000000001,1.0,1.0,3.51845,3.0,1.0,1.301445,4.0,1.0,2.30812,2.0,1.0,2.37216,1.0,1.0,3.97721,1.0,1.0,2.0,4.236825
