participant,expName,event_id,encoding.thisN,theme,object_label,person_label,place_label,resp_encSpace.rt,resp_enc_success.keys,resp_enc_success.rt,retrieval.thisN,resp_ret_vividness.keys,resp_ret_vividness.rt,q1_type,q2_type,q3_type,resp_gistmem1.corr,resp_gistmem1.rt,resp_gistmem1.keys,resp_gistmem2.corr,resp_gistmem2.rt,resp_gistmem2.keys,resp_gistmem3.corr,resp_gistmem3.rt,resp_gistmem3.keys,resp_detailmem1.corr,resp_detailmem1.rt,resp_detailmem1.keys,resp_detailmem2.corr,resp_detailmem2.rt,resp_detailmem2.keys,resp_detailmem3.corr,resp_detailmem3.rt,resp_detailmem3.keys,familiarity.thisN,resp_facefam.keys,resp_facefam.rt
367,grpA,16.0,0.0,Winter,Record,Samuel,Dining Room,8.925145,5.0,3.008455,1.0,2.0,2.205045,place,person,object,0.0,12.201375,1.0,0.0,11.571665,3.0,0.0,7.55991,1.0,1.0,5.14222,1.0,1.0,1.3776549999999999,1.0,0.0,4.7263,2.0,18.0,1.0,0.292075
367,grpA,15.0,1.0,Celebration,Football,Meryl,Harbor,11.58428,3.0,2.33445,11.0,1.0,1.590875,object,person,place,1.0,12.067905,1.0,0.0,7.27837,1.0,0.0,5.4031,3.0,1.0,3.05123,2.0,1.0,3.95819,1.0,1.0,3.500405,1.0,16.0,1.0,0.8533200000000001
367,grpA,9.0,2.0,Shopping,Duster,Robert,Kitchen,7.2705850000000005,5.0,3.5850400000000002,6.0,5.0,1.48973,place,object,person,1.0,6.066669999999999,4.0,1.0,1.78455,2.0,1.0,4.11956,1.0,1.0,4.086105,2.0,1.0,1.50121,1.0,1.0,1.12509,1.0,11.0,1.0,1.383815
367,grpA,12.0,3.0,Studying,Trampoline,Ellen,Classroom,13.217929999999999,3.0,1.9730599999999998,23.0,6.0,1.304905,place,person,object,1.0,4.006130000000001,4.0,1.0,2.184,4.0,1.0,1.024565,4.0,0.0,4.17071,1.0,1.0,1.051925,2.0,1.0,5.1357349999999995,1.0,14.0,1.0,0.38594
367,grpA,23.0,4.0,Eating,Hammock,Brad,Restaurant,9.255355,4.0,1.134785,10.0,4.0,1.87258,person,object,place,0.0,14.738204999999999,4.0,1.0,2.5059150000000003,3.0,1.0,5.034330000000001,3.0,1.0,4.450815,1.0,1.0,2.9498349999999998,2.0,1.0,3.2770300000000003,2.0,20.0,1.0,0.8177
367,grpA,18.0,5.0,DIY,Chair,Beyonce,Wine Cellar,4.669175,5.0,2.570395,0.0,5.0,2.4005799999999997,person,object,place,1.0,6.790125,2.0,1.0,3.327515,3.0,1.0,1.852125,4.0,1.0,2.0529450000000002,2.0,1.0,1.61809,1.0,1.0,1.6509650000000002,1.0,13.0,1.0,0.78458
367,grpA,13.0,6.0,Errands,Stopwatch,Tom,Icerink,,2.0,2.0943549999999997,7.0,3.0,4.0757699999999994,place,object,person,1.0,5.65866,3.0,1.0,3.0937349999999997,4.0,1.0,0.9380700000000001,1.0,1.0,3.5909050000000002,1.0,1.0,1.08782,1.0,1.0,2.152525,2.0,17.0,1.0,0.43385
367,grpA,4.0,7.0,Exercise,Beachball,Will,Casino,11.53496,3.0,0.920275,15.0,1.0,1.06684,object,person,place,0.0,14.201175,2.0,1.0,9.71848,2.0,1.0,6.618360000000001,2.0,0.0,1.30534,2.0,1.0,2.639525,2.0,1.0,1.33654,1.0,9.0,1.0,1.2356049999999998
367,grpA,11.0,8.0,Games,Binoculars,Leonardo,Lake,9.15967,4.0,1.6202450000000002,2.0,5.0,1.65133,object,place,person,1.0,10.23247,3.0,1.0,1.1618950000000001,2.0,1.0,0.77396,2.0,1.0,1.900205,1.0,1.0,1.4177799999999998,1.0,1.0,2.63737,2.0,12.0,1.0,0.717675
367,grpA,22.0,9.0,Travel,Computer,George,Field,10.15971,4.0,1.10637,12.0,5.0,1.3885,object,person,place,1.0,8.486,4.0,1.0,1.183785,1.0,1.0,1.6050149999999999,1.0,1.0,2.60831,1.0,0.0,3.82291,1.0,0.0,6.58643,1.0,4.0,1.0,0.55415
367,grpA,5.0,10.0,Party,Satchel,Anne,Bowling,7.00725,5.0,1.2000549999999999,14.0,6.0,1.325175,place,person,object,1.0,6.93467,3.0,1.0,1.477545,3.0,1.0,1.1341649999999999,1.0,1.0,7.18967,2.0,1.0,1.55284,1.0,0.0,1.0046549999999999,1.0,8.0,1.0,0.486275
367,grpA,21.0,11.0,Home,Gloves,Angelina,Cabin,6.70362,5.0,1.570415,19.0,5.0,1.3235350000000001,place,object,person,1.0,8.434535,2.0,1.0,2.401255,1.0,1.0,1.350175,3.0,1.0,1.591605,1.0,1.0,2.038745,2.0,0.0,4.35248,1.0,3.0,1.0,1.7843849999999999
367,grpA,24.0,12.0,Family,Extinguisher,Ryan,Basketball,10.35481,3.0,1.166825,17.0,6.0,1.20323,person,place,object,1.0,17.70384,4.0,1.0,3.100145,2.0,1.0,1.43951,3.0,0.0,2.57171,2.0,1.0,1.1018700000000001,1.0,1.0,1.118585,2.0,7.0,1.0,1.33589
367,grpA,1.0,13.0,Date,Pitcher,Reese,Studio,9.83586,4.0,1.07666,13.0,3.0,1.607505,person,place,object,0.0,18.85243,2.0,1.0,7.8007100000000005,3.0,1.0,2.283395,2.0,1.0,2.724735,1.0,1.0,3.189705,2.0,1.0,1.0004549999999999,2.0,2.0,2.0,5.433975
367,grpA,2.0,14.0,Volunteer,Flowers,Jennifer,Waterfall,8.867569999999999,3.0,0.866715,8.0,6.0,1.3347799999999999,person,place,object,1.0,7.03477,1.0,1.0,1.284905,3.0,1.0,3.80059,4.0,1.0,3.35036,2.0,1.0,1.4244649999999999,1.0,1.0,1.46151,1.0,21.0,1.0,0.9022399999999999
367,grpA,8.0,15.0,Competition,Goggles,Scarlett,Savannah,13.572829999999998,2.0,1.5185549999999999,3.0,4.0,1.5232649999999999,place,object,person,1.0,11.85408,1.0,1.0,3.20818,1.0,1.0,1.10123,4.0,1.0,2.1397150000000003,1.0,1.0,0.9861549999999999,2.0,1.0,8.33451,1.0,22.0,1.0,2.5411200000000003
367,grpA,6.0,16.0,Sightseeing,Ladder,Adam,Beach,11.351935000000001,4.0,1.7556900000000002,4.0,6.0,2.084165,object,place,person,1.0,4.8008,2.0,1.0,1.067105,1.0,1.0,2.8942799999999997,3.0,1.0,2.273085,2.0,1.0,5.905945,2.0,1.0,1.200165,2.0,19.0,1.0,2.36725
367,grpA,14.0,17.0,Relaxing,Stroller,Steve,Ski Slope,10.602015,2.0,1.292035,22.0,5.0,1.321815,place,person,object,1.0,13.070775,1.0,1.0,2.356405,1.0,1.0,1.835725,2.0,1.0,6.101935,2.0,1.0,1.37248,2.0,1.0,3.273085,1.0,1.0,1.0,1.4348049999999999
367,grpA,20.0,18.0,Friends,Backpack,Chris,Bridge,7.204,6.0,1.87599,16.0,6.0,1.45848,object,place,person,1.0,4.13698,3.0,1.0,1.27705,4.0,1.0,1.26935,2.0,1.0,1.894035,2.0,1.0,1.600535,1.0,1.0,1.950015,1.0,0.0,1.0,2.57346
367,grpA,17.0,19.0,Summer,Puppy,Sandra,Circus,6.734335000000001,5.0,1.14285,5.0,2.0,1.32746,object,person,place,0.0,21.890685,1.0,1.0,10.371145,4.0,1.0,3.6672,1.0,0.0,4.68705,1.0,1.0,2.62144,1.0,1.0,4.222815,2.0,6.0,1.0,2.12038
367,grpA,19.0,20.0,Vacation,Wine,Julia,Pool,7.81962,5.0,0.77572,20.0,4.0,2.5842099999999997,person,object,place,1.0,28.011955,3.0,1.0,6.27843,4.0,1.0,1.93477,2.0,1.0,3.97592,2.0,1.0,1.4692399999999999,1.0,1.0,14.15889,2.0,10.0,1.0,2.3228400000000002
367,grpA,3.0,21.0,Music,Bike,Halle,Lighthouse,8.168165,4.0,1.470545,9.0,3.0,1.6194,person,place,object,0.0,14.924145000000001,2.0,1.0,4.78739,1.0,1.0,0.668025,1.0,0.0,5.867265,1.0,1.0,1.717455,2.0,1.0,1.83375,2.0,15.0,2.0,7.12777
367,grpA,7.0,22.0,Art,Headphones,Denzel,Avenue,6.78525,4.0,1.001175,21.0,3.0,1.450675,person,object,place,1.0,4.438075,2.0,1.0,3.322035,2.0,1.0,4.0869,3.0,1.0,7.9020850000000005,1.0,1.0,1.667145,2.0,0.0,2.02129,2.0,23.0,1.0,1.772805
367,grpA,10.0,23.0,Work,Easel,Emma,Aquarium,7.85095,3.0,1.308775,18.0,2.0,1.351235,object,place,person,0.0,16.66841,4.0,0.0,2.53891,3.0,1.0,2.98694,4.0,1.0,1.276145,1.0,1.0,3.6261699999999997,2.0,1.0,2.357345,1.0,5.0,1.0,1.2339200000000001
