participant,expName,event_id,encoding.thisN,theme,object_label,person_label,place_label,resp_encSpace.rt,resp_enc_success.keys,resp_enc_success.rt,retrieval.thisN,resp_ret_vividness.keys,resp_ret_vividness.rt,q1_type,q2_type,q3_type,resp_gistmem1.corr,resp_gistmem1.rt,resp_gistmem1.keys,resp_gistmem2.corr,resp_gistmem2.rt,resp_gistmem2.keys,resp_gistmem3.corr,resp_gistmem3.rt,resp_gistmem3.keys,resp_detailmem1.corr,resp_detailmem1.rt,resp_detailmem1.keys,resp_detailmem2.corr,resp_detailmem2.rt,resp_detailmem2.keys,resp_detailmem3.corr,resp_detailmem3.rt,resp_detailmem3.keys,familiarity.thisN,resp_facefam.keys,resp_facefam.rt
380,grpB,24.0,0.0,Family,Extinguisher,Ryan,Basketball,,4.0,3.873885,6.0,1.0,0.68381,person,place,object,0.0,5.0046550000000005,1.0,0.0,3.3843949999999996,4.0,1.0,5.238475,3.0,0.0,2.92291,2.0,1.0,2.139425,1.0,1.0,3.3505300000000005,2.0,14.0,1.0,1.243435
380,grpB,5.0,1.0,Party,Satchel,Anne,Bowling,13.7171,6.0,1.688375,9.0,5.0,1.119875,place,person,object,1.0,7.118015,3.0,0.0,1.086165,2.0,1.0,6.343255,1.0,0.0,1.7913,1.0,1.0,2.252295,1.0,0.0,0.8628399999999999,1.0,6.0,3.0,0.687265
380,grpB,12.0,2.0,Studying,Trampoline,Ellen,Classroom,13.471820000000001,5.0,2.173425,23.0,2.0,0.73373,place,person,object,1.0,10.51013,4.0,0.0,2.52628,1.0,1.0,2.9502,4.0,0.0,2.3720849999999998,1.0,1.0,1.242505,2.0,1.0,1.2534100000000001,1.0,19.0,1.0,0.60592
380,grpB,7.0,3.0,Art,Headphones,Denzel,Avenue,13.385179999999998,6.0,1.21702,14.0,1.0,0.392495,person,object,place,0.0,7.720510000000001,1.0,0.0,7.200425,3.0,0.0,4.2618599999999995,1.0,1.0,2.5335650000000003,1.0,1.0,1.133645,2.0,1.0,1.967075,1.0,13.0,2.0,1.1028200000000001
380,grpB,6.0,4.0,Sightseeing,Ladder,Adam,Beach,,3.0,1.576315,20.0,2.0,0.5092899999999999,object,place,person,0.0,4.901025,1.0,0.0,4.7838400000000005,3.0,0.0,0.9002450000000001,1.0,0.0,1.330095,1.0,1.0,5.24538,2.0,0.0,1.42426,1.0,1.0,1.0,4.121795
380,grpB,2.0,5.0,Volunteer,Flowers,Jennifer,Waterfall,,4.0,1.53745,11.0,2.0,1.16254,person,place,object,0.0,4.9711099999999995,3.0,1.0,1.21746,3.0,0.0,1.38396,1.0,0.0,1.0170299999999999,1.0,1.0,1.03745,1.0,1.0,1.160065,1.0,5.0,3.0,1.406435
380,grpB,3.0,6.0,Music,Bike,Halle,Lighthouse,12.711785,3.0,1.90057,22.0,4.0,0.753475,person,place,object,0.0,6.050235,1.0,1.0,5.10855,1.0,1.0,1.629405,1.0,0.0,3.067065,1.0,1.0,1.2111049999999999,2.0,1.0,1.4669999999999999,2.0,23.0,3.0,0.87274
380,grpB,10.0,7.0,Work,Easel,Emma,Aquarium,13.47703,4.0,1.61732,7.0,2.0,0.903855,object,place,person,0.0,4.7340349999999995,1.0,1.0,3.5093199999999998,4.0,1.0,2.077455,4.0,1.0,1.200395,1.0,1.0,3.5501699999999996,2.0,1.0,1.804175,1.0,0.0,3.0,2.09239
380,grpB,22.0,8.0,Travel,Computer,George,Field,11.340605,6.0,2.3705950000000002,2.0,3.0,2.084725,object,person,place,1.0,6.70701,4.0,1.0,8.939905,1.0,1.0,2.27537,1.0,1.0,1.8704349999999998,1.0,1.0,3.6841,2.0,1.0,7.0500300000000005,2.0,15.0,3.0,3.8351
380,grpB,14.0,9.0,Relaxing,Stroller,Steve,Ski Slope,,2.0,2.517075,16.0,4.0,0.877,place,person,object,1.0,6.7972600000000005,1.0,0.0,2.73944,2.0,1.0,2.08378,2.0,1.0,2.27904,2.0,0.0,2.008315,1.0,1.0,1.068725,1.0,12.0,2.0,1.186135
380,grpB,16.0,10.0,Winter,Record,Samuel,Dining Room,11.26695,6.0,1.6258,3.0,2.0,1.692405,place,person,object,0.0,10.0411,1.0,0.0,5.4202900000000005,4.0,1.0,4.824525,3.0,1.0,3.7010050000000003,1.0,1.0,2.4784200000000003,1.0,0.0,3.13715,2.0,10.0,1.0,0.51165
380,grpB,13.0,11.0,Errands,Stopwatch,Tom,Icerink,,2.0,1.24138,0.0,4.0,2.429045,place,object,person,1.0,4.669765,3.0,1.0,10.3042,4.0,0.0,13.20875,3.0,1.0,7.75351,1.0,1.0,1.5362200000000001,1.0,0.0,4.10002,1.0,17.0,2.0,2.93467
380,grpB,15.0,12.0,Celebration,Football,Meryl,Harbor,,2.0,2.1362349999999997,17.0,1.0,0.9174,object,person,place,1.0,5.779845,1.0,0.0,2.234025,1.0,0.0,1.51693,1.0,1.0,3.1410150000000003,2.0,1.0,1.0127549999999998,1.0,1.0,1.06651,1.0,22.0,3.0,1.2577450000000001
380,grpB,20.0,13.0,Friends,Backpack,Chris,Bridge,13.71,4.0,0.91665,10.0,4.0,0.8420799999999999,object,place,person,1.0,5.35744,3.0,1.0,1.0766950000000002,4.0,1.0,2.41676,2.0,1.0,2.9171150000000003,2.0,1.0,0.7413649999999999,1.0,1.0,4.069375,1.0,2.0,1.0,0.8952200000000001
380,grpB,4.0,14.0,Exercise,Beachball,Will,Casino,,3.0,1.840455,13.0,3.0,1.5670549999999999,object,person,place,0.0,4.30616,3.0,0.0,1.338765,4.0,1.0,4.4110000000000005,2.0,0.0,1.900405,2.0,0.0,2.05385,1.0,1.0,0.81702,1.0,8.0,1.0,0.6004550000000001
380,grpB,17.0,15.0,Summer,Puppy,Sandra,Circus,13.2414,6.0,0.8675149999999999,15.0,4.0,0.56704,object,person,place,1.0,11.150360000000001,4.0,1.0,3.844975,4.0,1.0,0.83386,1.0,1.0,3.472815,2.0,1.0,0.987935,1.0,1.0,2.472275,2.0,3.0,3.0,5.219715
380,grpB,9.0,16.0,Shopping,Duster,Robert,Kitchen,13.407465,5.0,1.4935399999999999,12.0,6.0,0.9857100000000001,place,object,person,1.0,4.100435,4.0,1.0,1.150465,2.0,1.0,0.954825,1.0,1.0,7.887295,2.0,1.0,0.584,1.0,1.0,1.9255650000000002,1.0,21.0,1.0,0.658265
380,grpB,23.0,17.0,Eating,Hammock,Brad,Restaurant,13.637575,3.0,0.675225,8.0,3.0,0.6224850000000001,person,object,place,0.0,3.26872,4.0,1.0,4.3426599999999995,3.0,1.0,0.51062,3.0,1.0,1.91714,1.0,1.0,2.593905,2.0,1.0,1.06725,2.0,11.0,1.0,0.77161
380,grpB,1.0,18.0,Date,Pitcher,Reese,Studio,,1.0,0.81743,21.0,2.0,0.992575,person,place,object,1.0,4.4567,3.0,1.0,10.15521,3.0,1.0,4.15396,2.0,1.0,0.733545,1.0,0.0,0.97344,1.0,1.0,0.667555,2.0,4.0,3.0,1.150315
380,grpB,21.0,19.0,Home,Gloves,Angelina,Cabin,,2.0,3.26717,18.0,2.0,1.53403,place,object,person,1.0,9.68707,2.0,1.0,1.52021,1.0,1.0,2.17665,3.0,1.0,1.183765,1.0,1.0,2.23548,2.0,0.0,0.97475,1.0,7.0,2.0,1.1673149999999999
380,grpB,19.0,20.0,Vacation,Wine,Julia,Pool,12.42553,6.0,0.92774,19.0,4.0,0.758465,person,object,place,0.0,4.15261,2.0,1.0,1.127385,4.0,1.0,0.567225,2.0,0.0,2.374145,1.0,1.0,1.04386,1.0,0.0,6.850785000000001,1.0,16.0,3.0,1.30666
380,grpB,11.0,21.0,Games,Binoculars,Leonardo,Lake,12.837315,6.0,1.1002299999999998,5.0,5.0,1.104585,object,place,person,1.0,3.044605,3.0,1.0,1.745465,2.0,1.0,4.70464,2.0,1.0,0.90561,1.0,1.0,0.90705,1.0,1.0,3.8120800000000004,2.0,20.0,1.0,1.1024049999999999
380,grpB,8.0,22.0,Competition,Goggles,Scarlett,Savannah,,3.0,2.334105,4.0,4.0,1.08574,place,object,person,1.0,12.396044999999999,1.0,1.0,4.873480000000001,1.0,1.0,1.45943,4.0,1.0,1.12683,1.0,0.0,1.03393,1.0,1.0,1.3788799999999999,1.0,9.0,1.0,0.63345
380,grpB,18.0,23.0,DIY,Chair,Beyonce,Wine Cellar,11.085560000000001,5.0,1.4006,1.0,5.0,2.87661,person,object,place,1.0,4.268845,2.0,1.0,4.070715,3.0,1.0,1.8006900000000001,4.0,0.0,3.183575,1.0,1.0,1.788085,1.0,1.0,2.19372,1.0,18.0,1.0,3.9386550000000002
