participant,event_id,encoding.thisN,theme,object_label,person_label,place_label,resp_encSpace.rt,retrieval.thisN,resp_ret_vividness.keys,resp_ret_vividness.rt,q1_type,q2_type,q3_type,resp_gistmem1.corr,resp_gistmem1.rt,resp_gistmem1.keys,resp_gistmem2.corr,resp_gistmem2.rt,resp_gistmem2.keys,resp_gistmem3.corr,resp_gistmem3.rt,resp_gistmem3.keys,resp_detailmem1.corr,resp_detailmem1.rt,resp_detailmem1.keys,resp_detailmem2.corr,resp_detailmem2.rt,resp_detailmem2.keys,resp_detailmem3.corr,resp_detailmem3.rt,resp_detailmem3.keys,familiarity.thisN,resp_facefam.keys,resp_facefam.rt
202,19.0,0.0,Vacation,Wine,Julia,Pool,13.401539999999999,1.0,2.0,2.2371,person,object,place,1.0,5.607675,3.0,1.0,9.71566,4.0,0.0,6.6173649999999995,4.0,1.0,2.3002849999999997,2.0,1.0,1.698445,1.0,0.0,5.00098,1.0,13.0,1.0,1.301515
202,1.0,1.0,Date,Pitcher,Reese,Studio,11.180394999999999,12.0,3.0,1.4290200000000002,person,place,object,1.0,3.7129199999999996,3.0,1.0,5.96301,3.0,1.0,2.3010450000000002,2.0,1.0,1.090025,1.0,1.0,2.487805,2.0,1.0,1.000775,2.0,8.0,1.0,0.7373350000000001
202,11.0,2.0,Games,Binoculars,Leonardo,Lake,12.00943,5.0,4.0,2.047185,object,place,person,1.0,6.686585000000001,3.0,1.0,1.83008,2.0,1.0,2.66668,2.0,1.0,3.5009349999999997,1.0,1.0,1.28546,1.0,0.0,3.21651,1.0,15.0,1.0,1.00376
202,21.0,3.0,Home,Gloves,Angelina,Cabin,13.376629999999999,13.0,5.0,1.76693,place,object,person,1.0,3.89665,2.0,1.0,3.9135199999999997,1.0,1.0,1.56649,3.0,1.0,1.8959150000000002,1.0,1.0,1.86654,2.0,1.0,2.5003,2.0,12.0,1.0,0.77812
202,6.0,4.0,Sightseeing,Ladder,Adam,Beach,12.309305,9.0,2.0,1.399455,object,place,person,0.0,11.69994,1.0,1.0,6.51655,1.0,1.0,1.30219,3.0,1.0,1.35356,2.0,1.0,1.267225,2.0,1.0,1.55125,2.0,0.0,1.0,4.743035
202,8.0,5.0,Competition,Goggles,Scarlett,Savannah,10.397639999999999,22.0,2.0,1.60113,place,object,person,1.0,3.335815,1.0,1.0,1.567545,1.0,1.0,10.211855,4.0,1.0,0.8518,1.0,1.0,1.12173,2.0,1.0,1.596965,1.0,16.0,1.0,1.00019
202,16.0,6.0,Winter,Record,Samuel,Dining Room,11.214135,6.0,5.0,2.818365,place,person,object,1.0,7.08275,2.0,1.0,1.274915,2.0,1.0,3.25349,3.0,1.0,1.8567049999999998,1.0,1.0,1.6357700000000002,1.0,1.0,2.013985,1.0,22.0,1.0,1.554175
202,17.0,7.0,Summer,Puppy,Sandra,Circus,11.416295,14.0,3.0,1.352035,object,person,place,1.0,6.12057,4.0,1.0,9.225905000000001,4.0,1.0,3.6293349999999998,1.0,0.0,1.089625,1.0,1.0,2.36797,1.0,0.0,0.87279,1.0,11.0,1.0,0.74407
202,3.0,8.0,Music,Bike,Halle,Lighthouse,13.536925,23.0,2.0,1.28434,person,place,object,1.0,13.84431,4.0,1.0,4.38429,1.0,1.0,0.8169850000000001,1.0,0.0,1.35154,1.0,0.0,0.882935,1.0,1.0,1.934465,2.0,7.0,1.0,0.7230300000000001
202,2.0,9.0,Volunteer,Flowers,Jennifer,Waterfall,,3.0,6.0,1.35775,person,place,object,1.0,3.30053,1.0,1.0,1.819045,3.0,1.0,2.216945,4.0,0.0,3.899375,1.0,1.0,2.070125,1.0,1.0,0.68512,1.0,17.0,1.0,1.0674549999999998
202,23.0,10.0,Eating,Hammock,Brad,Restaurant,12.408685,10.0,1.0,1.140105,person,object,place,0.0,9.44325,2.0,1.0,3.3764300000000005,3.0,1.0,0.79965,3.0,1.0,2.2619700000000003,1.0,0.0,1.50217,1.0,1.0,1.2482799999999998,2.0,5.0,1.0,1.018975
202,5.0,11.0,Party,Satchel,Anne,Bowling,12.004945,17.0,4.0,1.517895,place,person,object,1.0,5.10292,3.0,1.0,5.762894999999999,3.0,1.0,1.0516299999999998,1.0,1.0,1.7315150000000001,2.0,1.0,2.199105,1.0,1.0,1.8173099999999998,2.0,21.0,1.0,1.313035
202,20.0,12.0,Friends,Backpack,Chris,Bridge,,16.0,2.0,1.341875,object,place,person,1.0,7.2457199999999995,3.0,1.0,4.02918,4.0,1.0,1.984935,2.0,1.0,1.2179950000000002,2.0,1.0,1.29675,1.0,0.0,2.9853650000000003,2.0,4.0,1.0,0.617475
202,13.0,13.0,Errands,Stopwatch,Tom,Icerink,,4.0,4.0,0.756835,place,object,person,1.0,4.68383,3.0,1.0,3.1193150000000003,4.0,0.0,4.9665550000000005,3.0,1.0,2.029595,1.0,1.0,0.85059,1.0,0.0,4.996090000000001,1.0,14.0,1.0,1.127135
202,10.0,14.0,Work,Easel,Emma,Aquarium,13.20985,19.0,5.0,2.1947099999999997,object,place,person,1.0,4.016355,2.0,1.0,1.52219,4.0,1.0,1.15909,4.0,1.0,2.06845,1.0,1.0,1.300835,2.0,1.0,1.369715,1.0,1.0,1.0,1.6240450000000002
202,9.0,15.0,Shopping,Duster,Robert,Kitchen,11.34774,8.0,2.0,1.017535,place,object,person,0.0,7.263330000000001,3.0,1.0,6.512194999999999,2.0,1.0,2.38028,1.0,0.0,3.550975,1.0,1.0,1.36681,1.0,1.0,2.2672950000000003,1.0,19.0,1.0,4.81885
202,22.0,16.0,Travel,Computer,George,Field,11.50948,11.0,1.0,1.06778,object,person,place,0.0,7.8448899999999995,2.0,0.0,4.77876,2.0,1.0,3.4355849999999997,1.0,1.0,3.39051,1.0,1.0,2.254075,2.0,0.0,0.8388399999999999,1.0,18.0,1.0,1.283575
202,24.0,17.0,Family,Extinguisher,Ryan,Basketball,13.438695000000001,20.0,4.0,1.1897149999999999,person,place,object,1.0,7.02946,4.0,1.0,6.36338,2.0,1.0,1.4534850000000001,3.0,0.0,3.38216,2.0,1.0,0.97026,1.0,1.0,1.038745,2.0,9.0,1.0,0.7577050000000001
202,7.0,18.0,Art,Headphones,Denzel,Avenue,11.129875,2.0,5.0,1.281815,person,object,place,1.0,10.393310000000001,2.0,1.0,6.2963,2.0,1.0,1.3685049999999999,3.0,1.0,2.8213150000000002,1.0,0.0,2.286,1.0,1.0,2.43509,1.0,23.0,1.0,1.08094
202,12.0,19.0,Studying,Trampoline,Ellen,Classroom,,0.0,6.0,2.37665,place,person,object,1.0,7.1558850000000005,4.0,1.0,2.433805,4.0,1.0,1.9029049999999998,4.0,1.0,6.83741,2.0,1.0,2.399495,2.0,1.0,1.966735,1.0,3.0,1.0,0.700345
202,4.0,20.0,Exercise,Beachball,Will,Casino,8.06281,18.0,2.0,1.3341399999999999,object,person,place,1.0,9.03245,1.0,1.0,6.20993,2.0,1.0,4.335165,2.0,0.0,1.8000450000000001,2.0,0.0,2.38408,1.0,0.0,2.6665900000000002,2.0,20.0,1.0,1.1462350000000001
202,15.0,21.0,Celebration,Football,Meryl,Harbor,12.040965,7.0,5.0,1.4904549999999999,object,person,place,1.0,6.239255,1.0,1.0,1.336125,3.0,1.0,1.6345299999999998,4.0,1.0,1.715375,2.0,1.0,1.19125,1.0,1.0,1.28339,1.0,2.0,1.0,0.717975
202,14.0,22.0,Relaxing,Stroller,Steve,Ski Slope,11.537495,21.0,5.0,2.014655,place,person,object,1.0,2.335315,1.0,1.0,0.901875,1.0,1.0,1.36763,2.0,1.0,1.634005,2.0,0.0,2.5964650000000002,1.0,1.0,0.968225,1.0,6.0,1.0,0.8735850000000001
202,18.0,23.0,DIY,Chair,Beyonce,Wine Cellar,12.642945,15.0,5.0,1.970375,person,object,place,1.0,3.21866,2.0,1.0,2.960355,3.0,1.0,1.4565649999999999,4.0,1.0,1.5016399999999999,2.0,1.0,1.1344100000000001,1.0,1.0,1.467455,1.0,10.0,1.0,0.764005
