participant,event_id,encoding.thisN,theme,object_label,person_label,place_label,resp_encSpace.rt,retrieval.thisN,resp_ret_vividness.keys,resp_ret_vividness.rt,q1_type,q2_type,q3_type,resp_gistmem1.corr,resp_gistmem1.rt,resp_gistmem1.keys,resp_gistmem2.corr,resp_gistmem2.rt,resp_gistmem2.keys,resp_gistmem3.corr,resp_gistmem3.rt,resp_gistmem3.keys,resp_detailmem1.corr,resp_detailmem1.rt,resp_detailmem1.keys,resp_detailmem2.corr,resp_detailmem2.rt,resp_detailmem2.keys,resp_detailmem3.corr,resp_detailmem3.rt,resp_detailmem3.keys,familiarity.thisN,resp_facefam.keys,resp_facefam.rt
211,10.0,0.0,Work,Easel,Emma,Aquarium,,8.0,5.0,3.25292,object,place,person,1.0,5.38512,2.0,1.0,6.022525,4.0,1.0,2.274565,4.0,1.0,1.4277600000000001,1.0,1.0,2.8604950000000002,2.0,1.0,1.496625,1.0,18.0,1.0,0.555005
211,7.0,1.0,Art,Headphones,Denzel,Avenue,,12.0,4.0,1.1506100000000001,person,object,place,1.0,1.737165,2.0,0.0,2.95546,1.0,0.0,0.6317699999999999,2.0,0.0,2.24335,2.0,1.0,1.167265,2.0,1.0,1.654405,1.0,16.0,2.0,2.033925
211,8.0,2.0,Competition,Goggles,Scarlett,Savannah,13.175139999999999,21.0,3.0,1.68813,place,object,person,1.0,1.8698099999999998,1.0,1.0,0.7176,1.0,0.0,2.4283900000000003,2.0,1.0,1.13923,1.0,1.0,1.0917649999999999,2.0,0.0,2.900465,2.0,14.0,1.0,0.6940350000000001
211,12.0,3.0,Studying,Trampoline,Ellen,Classroom,11.160345,13.0,5.0,1.25042,place,person,object,1.0,3.51059,4.0,1.0,1.026745,4.0,1.0,0.6886399999999999,4.0,1.0,2.423925,2.0,1.0,2.109595,2.0,1.0,1.106845,1.0,10.0,1.0,0.45443500000000003
211,24.0,4.0,Family,Extinguisher,Ryan,Basketball,9.42887,16.0,5.0,1.260105,person,place,object,1.0,4.09438,4.0,1.0,0.60634,2.0,1.0,1.2512,3.0,1.0,1.6646400000000001,1.0,1.0,1.145825,1.0,1.0,1.6472900000000001,2.0,3.0,1.0,0.44381499999999996
211,15.0,5.0,Celebration,Football,Meryl,Harbor,12.64717,1.0,5.0,2.058455,object,person,place,1.0,2.46792,1.0,1.0,2.842115,3.0,1.0,2.022165,4.0,1.0,1.6004049999999999,2.0,1.0,1.1428,1.0,1.0,1.139665,1.0,13.0,1.0,0.570815
211,11.0,6.0,Games,Binoculars,Leonardo,Lake,13.777510000000001,18.0,4.0,0.9313950000000001,object,place,person,1.0,3.48481,3.0,1.0,1.152825,2.0,1.0,0.5372399999999999,2.0,1.0,0.914275,1.0,1.0,1.491025,1.0,1.0,1.8431950000000001,2.0,15.0,1.0,0.5670149999999999
211,14.0,7.0,Relaxing,Stroller,Steve,Ski Slope,7.710560000000001,9.0,6.0,1.100225,place,person,object,1.0,1.6762099999999998,1.0,1.0,1.164385,1.0,1.0,0.7952,2.0,1.0,1.491865,2.0,0.0,1.45433,1.0,1.0,0.951815,1.0,22.0,1.0,0.733965
211,9.0,8.0,Shopping,Duster,Robert,Kitchen,10.114239999999999,2.0,5.0,1.32275,place,object,person,1.0,3.03767,4.0,1.0,1.422555,2.0,1.0,1.1129799999999999,1.0,0.0,3.297305,1.0,1.0,1.32493,1.0,1.0,1.11713,1.0,7.0,1.0,0.5269550000000001
211,23.0,9.0,Eating,Hammock,Brad,Restaurant,9.52784,11.0,4.0,1.1727049999999999,person,object,place,0.0,8.100585,2.0,1.0,5.72278,3.0,1.0,0.76902,3.0,1.0,1.5729899999999999,1.0,1.0,1.69173,2.0,1.0,1.11762,2.0,23.0,2.0,0.767205
211,19.0,10.0,Vacation,Wine,Julia,Pool,7.676655,14.0,3.0,1.00538,person,object,place,1.0,6.689914999999999,3.0,0.0,5.222415,1.0,1.0,3.309915,2.0,1.0,1.98927,2.0,1.0,0.79999,1.0,1.0,2.622745,2.0,17.0,2.0,0.897755
211,22.0,11.0,Travel,Computer,George,Field,9.76804,20.0,5.0,1.60009,object,person,place,1.0,4.934245,4.0,0.0,0.9263549999999999,4.0,1.0,1.3350799999999998,1.0,1.0,0.600885,1.0,1.0,3.53387,2.0,1.0,1.481225,2.0,8.0,2.0,1.5364200000000001
211,4.0,12.0,Exercise,Beachball,Will,Casino,12.7713,17.0,4.0,1.188325,object,person,place,1.0,3.1846400000000004,1.0,1.0,3.00177,2.0,1.0,0.809225,2.0,0.0,1.79985,2.0,1.0,1.9647,2.0,1.0,0.981165,1.0,9.0,1.0,0.5113449999999999
211,20.0,13.0,Friends,Backpack,Chris,Bridge,7.504519999999999,10.0,5.0,1.100495,object,place,person,1.0,1.97845,3.0,1.0,2.46023,4.0,1.0,0.9272450000000001,2.0,1.0,1.142115,2.0,1.0,0.915315,1.0,1.0,1.01777,1.0,19.0,1.0,0.37595500000000004
211,6.0,14.0,Sightseeing,Ladder,Adam,Beach,8.372175,23.0,4.0,1.0517450000000002,object,place,person,1.0,112.71068000000001,2.0,1.0,1.8374700000000002,1.0,1.0,2.26684,3.0,1.0,1.6063,2.0,1.0,1.49386,2.0,1.0,1.4451399999999999,2.0,4.0,1.0,0.505195
211,21.0,15.0,Home,Gloves,Angelina,Cabin,8.485195,22.0,4.0,1.3017100000000001,place,object,person,1.0,2.08722,2.0,1.0,1.38068,1.0,1.0,2.4510099999999997,3.0,1.0,1.04301,1.0,1.0,0.80753,2.0,1.0,1.7442950000000002,2.0,0.0,1.0,1.877545
211,17.0,16.0,Summer,Puppy,Sandra,Circus,6.85818,4.0,4.0,2.1126150000000004,object,person,place,1.0,6.61331,4.0,0.0,5.55642,3.0,1.0,1.37236,1.0,1.0,1.6132600000000001,2.0,1.0,3.3516199999999996,1.0,0.0,1.658195,1.0,21.0,2.0,1.74875
211,18.0,17.0,DIY,Chair,Beyonce,Wine Cellar,7.35434,7.0,5.0,1.1113600000000001,person,object,place,1.0,1.45502,2.0,1.0,1.87953,3.0,1.0,2.5304849999999997,4.0,1.0,1.23009,2.0,1.0,1.48364,1.0,1.0,1.1967450000000002,1.0,2.0,1.0,0.4829
211,3.0,18.0,Music,Bike,Halle,Lighthouse,7.942315,15.0,2.0,0.85093,person,place,object,0.0,4.675775,2.0,0.0,4.273105,4.0,1.0,2.60255,1.0,1.0,1.9888299999999999,2.0,1.0,1.24471,2.0,0.0,0.839835,1.0,6.0,1.0,0.456005
211,16.0,19.0,Winter,Record,Samuel,Dining Room,9.813425,0.0,6.0,2.329595,place,person,object,1.0,5.42442,2.0,1.0,3.09,2.0,1.0,1.551985,3.0,1.0,5.9757050000000005,1.0,1.0,0.972815,1.0,1.0,2.023905,1.0,1.0,1.0,0.42988999999999994
211,13.0,20.0,Errands,Stopwatch,Tom,Icerink,13.6803,3.0,3.0,1.23508,place,object,person,1.0,2.53016,3.0,1.0,2.767745,4.0,1.0,1.37552,1.0,1.0,2.22934,1.0,1.0,0.7615149999999999,1.0,0.0,1.0016399999999999,1.0,20.0,1.0,1.58378
211,5.0,21.0,Party,Satchel,Anne,Bowling,5.867375,5.0,5.0,1.200605,place,person,object,1.0,3.1902049999999997,3.0,1.0,3.23813,3.0,1.0,1.16822,1.0,1.0,2.607225,2.0,1.0,1.7546650000000001,1.0,1.0,1.0642200000000002,2.0,5.0,1.0,0.6287149999999999
211,1.0,22.0,Date,Pitcher,Reese,Studio,,6.0,3.0,1.54786,person,place,object,0.0,10.500665,1.0,1.0,6.943485000000001,3.0,1.0,6.231365,2.0,1.0,2.2959650000000003,1.0,1.0,1.96012,2.0,1.0,0.781845,2.0,11.0,1.0,1.91894
211,2.0,23.0,Volunteer,Flowers,Jennifer,Waterfall,13.806695000000001,19.0,5.0,1.178605,person,place,object,1.0,3.9507800000000004,1.0,1.0,2.5948849999999997,3.0,1.0,0.8338899999999999,4.0,1.0,1.74417,2.0,1.0,1.00508,1.0,1.0,0.878935,1.0,12.0,1.0,0.8854850000000001
