participant,event_id,encoding.thisN,theme,object_label,person_label,place_label,resp_encSpace.rt,retrieval.thisN,resp_ret_vividness.keys,resp_ret_vividness.rt,q1_type,q2_type,q3_type,resp_gistmem1.corr,resp_gistmem1.rt,resp_gistmem1.keys,resp_gistmem2.corr,resp_gistmem2.rt,resp_gistmem2.keys,resp_gistmem3.corr,resp_gistmem3.rt,resp_gistmem3.keys,resp_detailmem1.corr,resp_detailmem1.rt,resp_detailmem1.keys,resp_detailmem2.corr,resp_detailmem2.rt,resp_detailmem2.keys,resp_detailmem3.corr,resp_detailmem3.rt,resp_detailmem3.keys,familiarity.thisN,resp_facefam.keys,resp_facefam.rt
229,12.0,0.0,Studying,Trampoline,Ellen,Classroom,,0.0,6.0,2.08561,place,person,object,1.0,11.205465,4.0,1.0,4.417335,4.0,1.0,2.48589,4.0,0.0,3.3439349999999997,1.0,1.0,1.517205,2.0,1.0,2.3245150000000003,1.0,2.0,1.0,0.906525
229,3.0,1.0,Music,Bike,Halle,Lighthouse,5.604495,21.0,2.0,0.8776649999999999,person,place,object,1.0,1.816075,4.0,1.0,3.74044,1.0,0.0,2.418255,2.0,0.0,3.257155,1.0,1.0,1.8365150000000001,2.0,0.0,3.2551349999999997,1.0,12.0,1.0,0.41116
229,23.0,2.0,Eating,Hammock,Brad,Restaurant,2.76705,6.0,1.0,0.820975,person,object,place,1.0,5.523219999999999,1.0,0.0,3.0422700000000003,4.0,0.0,3.241175,2.0,1.0,1.7683349999999998,1.0,1.0,4.148725,2.0,1.0,2.707055,2.0,18.0,1.0,0.27178
229,8.0,3.0,Competition,Goggles,Scarlett,Savannah,4.009494999999999,12.0,1.0,0.6399100000000001,place,object,person,1.0,4.887135,1.0,0.0,1.976,2.0,0.0,4.57151,2.0,0.0,1.1619549999999998,2.0,0.0,1.959095,1.0,1.0,2.28737,1.0,10.0,1.0,0.80808
229,22.0,4.0,Travel,Computer,George,Field,,7.0,1.0,0.9966299999999999,object,person,place,0.0,6.18363,2.0,0.0,1.60045,4.0,0.0,2.6248650000000002,2.0,0.0,0.891025,2.0,1.0,1.180895,2.0,0.0,2.134385,1.0,21.0,1.0,0.385335
229,4.0,5.0,Exercise,Beachball,Will,Casino,,5.0,1.0,1.318645,object,person,place,1.0,4.45201,1.0,0.0,1.20965,1.0,0.0,6.600255000000001,4.0,0.0,1.491105,2.0,0.0,2.467645,1.0,1.0,2.77477,1.0,8.0,1.0,0.37205
229,7.0,6.0,Art,Headphones,Denzel,Avenue,,8.0,1.0,0.71518,person,object,place,0.0,2.30228,3.0,1.0,3.184145,2.0,0.0,2.34042,4.0,0.0,1.44085,2.0,0.0,1.8221150000000002,1.0,1.0,1.5061,1.0,7.0,1.0,0.47556499999999996
229,20.0,7.0,Friends,Backpack,Chris,Bridge,,18.0,2.0,0.740105,object,place,person,0.0,4.777080000000001,2.0,1.0,4.65295,4.0,1.0,3.60054,2.0,1.0,1.9751900000000002,2.0,0.0,1.3840649999999999,2.0,0.0,3.5338199999999995,2.0,1.0,1.0,0.862935
229,5.0,8.0,Party,Satchel,Anne,Bowling,,2.0,1.0,0.607255,place,person,object,0.0,4.77436,4.0,0.0,3.3030150000000003,4.0,0.0,2.919705,2.0,0.0,2.0756200000000002,1.0,1.0,1.29526,1.0,1.0,2.60089,2.0,5.0,1.0,0.734635
229,6.0,9.0,Sightseeing,Ladder,Adam,Beach,,3.0,2.0,1.510335,object,place,person,0.0,4.822735,3.0,1.0,6.6725699999999994,1.0,0.0,5.18008,2.0,1.0,1.8733549999999999,2.0,1.0,2.265405,2.0,1.0,4.4169,2.0,15.0,1.0,0.43254499999999996
229,2.0,10.0,Volunteer,Flowers,Jennifer,Waterfall,,10.0,1.0,0.672795,person,place,object,0.0,2.06219,2.0,1.0,4.041135,3.0,0.0,2.70929,3.0,1.0,1.9665400000000002,2.0,0.0,1.83607,2.0,1.0,1.7054599999999998,1.0,13.0,1.0,0.9210200000000001
229,10.0,11.0,Work,Easel,Emma,Aquarium,,17.0,2.0,0.85044,object,place,person,0.0,5.41469,3.0,1.0,2.70083,4.0,1.0,2.631545,4.0,1.0,3.6958599999999997,1.0,0.0,5.07391,1.0,1.0,3.079645,1.0,11.0,2.0,3.3994449999999996
229,24.0,12.0,Family,Extinguisher,Ryan,Basketball,,16.0,1.0,0.8883700000000001,person,place,object,1.0,3.3666449999999997,4.0,0.0,5.58362,1.0,0.0,2.615365,2.0,0.0,6.171494999999999,2.0,1.0,2.584285,1.0,1.0,2.153,2.0,3.0,1.0,0.528115
229,17.0,13.0,Summer,Puppy,Sandra,Circus,5.49183,14.0,2.0,0.86213,object,person,place,0.0,4.37401,3.0,0.0,5.68637,1.0,0.0,3.444235,3.0,1.0,1.9341650000000001,2.0,0.0,1.68396,2.0,1.0,1.50722,2.0,9.0,1.0,0.50718
229,18.0,14.0,DIY,Chair,Beyonce,Wine Cellar,7.357925,4.0,1.0,1.0050649999999999,person,object,place,0.0,4.417315,4.0,0.0,3.5127349999999997,4.0,0.0,3.278035,3.0,1.0,2.2680849999999997,2.0,0.0,1.395365,2.0,0.0,1.47194,2.0,23.0,1.0,0.8583
229,14.0,15.0,Relaxing,Stroller,Steve,Ski Slope,0.630815,20.0,1.0,1.41984,place,person,object,1.0,2.72817,1.0,0.0,2.284575,2.0,1.0,2.4829849999999998,2.0,0.0,2.74324,1.0,1.0,2.57558,2.0,0.0,1.8044799999999999,2.0,6.0,1.0,0.408945
229,1.0,16.0,Date,Pitcher,Reese,Studio,4.610685,9.0,1.0,0.807285,person,place,object,1.0,4.785225,3.0,1.0,2.475545,3.0,0.0,2.6528,1.0,1.0,1.8012150000000002,1.0,0.0,2.5056599999999998,1.0,0.0,1.2723799999999998,1.0,16.0,1.0,1.39998
229,16.0,17.0,Winter,Record,Samuel,Dining Room,2.5104349999999998,1.0,1.0,0.875815,place,person,object,1.0,6.755905,2.0,1.0,3.4056800000000003,2.0,0.0,3.1908,2.0,0.0,1.813875,2.0,1.0,1.593625,1.0,1.0,3.3765300000000003,1.0,0.0,1.0,13.672165
229,15.0,18.0,Celebration,Football,Meryl,Harbor,2.1135450000000002,15.0,2.0,0.80443,object,person,place,1.0,4.3429199999999994,1.0,0.0,3.8381849999999997,1.0,0.0,2.05143,2.0,1.0,2.999285,2.0,1.0,2.61835,1.0,0.0,2.77104,2.0,4.0,1.0,0.9460850000000001
229,21.0,19.0,Home,Gloves,Angelina,Cabin,,23.0,1.0,1.324275,place,object,person,0.0,4.7276,3.0,0.0,1.74948,4.0,1.0,1.9398950000000001,3.0,0.0,0.9716549999999999,2.0,1.0,1.386155,2.0,1.0,1.61693,2.0,14.0,1.0,1.9673349999999998
229,13.0,20.0,Errands,Stopwatch,Tom,Icerink,5.393715,19.0,2.0,0.8872,place,object,person,1.0,3.7168099999999997,3.0,1.0,2.51779,4.0,0.0,2.200345,3.0,0.0,1.822755,2.0,1.0,2.133515,1.0,1.0,1.8701349999999999,2.0,19.0,1.0,0.43642
229,11.0,21.0,Games,Binoculars,Leonardo,Lake,2.3434,13.0,2.0,1.76188,object,place,person,0.0,3.4886800000000004,4.0,0.0,3.06893,1.0,1.0,1.9169900000000002,2.0,0.0,1.05551,2.0,0.0,1.389785,2.0,1.0,3.50023,2.0,20.0,1.0,0.5063949999999999
229,9.0,22.0,Shopping,Duster,Robert,Kitchen,4.761525,11.0,1.0,0.799205,place,object,person,1.0,5.6401,4.0,0.0,3.503855,4.0,0.0,2.77767,3.0,0.0,2.02885,1.0,0.0,1.513205,2.0,0.0,3.705545,2.0,17.0,1.0,0.343055
229,19.0,23.0,Vacation,Wine,Julia,Pool,3.7021,22.0,1.0,1.057485,person,object,place,1.0,6.74115,3.0,0.0,2.49195,3.0,0.0,2.43222,4.0,0.0,4.232035,1.0,0.0,0.93491,2.0,1.0,2.00052,2.0,22.0,2.0,1.51837
