participant,event_id,encoding.thisN,theme,object_label,person_label,place_label,resp_encSpace.rt,retrieval.thisN,resp_ret_vividness.keys,resp_ret_vividness.rt,q1_type,q2_type,q3_type,resp_gistmem1.corr,resp_gistmem1.rt,resp_gistmem1.keys,resp_gistmem2.corr,resp_gistmem2.rt,resp_gistmem2.keys,resp_gistmem3.corr,resp_gistmem3.rt,resp_gistmem3.keys,resp_detailmem1.corr,resp_detailmem1.rt,resp_detailmem1.keys,resp_detailmem2.corr,resp_detailmem2.rt,resp_detailmem2.keys,resp_detailmem3.corr,resp_detailmem3.rt,resp_detailmem3.keys,familiarity.thisN,resp_facefam.keys,resp_facefam.rt
230,7.0,0.0,Art,Headphones,Denzel,Avenue,,22.0,6.0,1.2916100000000001,person,object,place,1.0,5.20254,2.0,1.0,1.484745,2.0,1.0,2.80281,3.0,1.0,2.53476,1.0,1.0,2.31351,2.0,1.0,1.860175,1.0,8.0,1.0,0.64205
230,5.0,1.0,Party,Satchel,Anne,Bowling,12.304680000000001,3.0,5.0,1.761595,place,person,object,1.0,13.1821,3.0,1.0,4.2252849999999995,3.0,1.0,3.071615,1.0,1.0,3.362525,2.0,1.0,1.9760950000000002,1.0,1.0,2.102525,2.0,2.0,1.0,0.60941
230,15.0,2.0,Celebration,Football,Meryl,Harbor,,20.0,3.0,1.17377,object,person,place,1.0,12.50746,1.0,1.0,1.270035,3.0,1.0,4.527855000000001,4.0,1.0,1.21812,2.0,1.0,1.20349,1.0,0.0,0.8747,2.0,4.0,1.0,0.54699
230,4.0,3.0,Exercise,Beachball,Will,Casino,10.58765,23.0,4.0,1.4583700000000002,object,person,place,1.0,11.39534,1.0,1.0,0.9338,2.0,1.0,3.13803,2.0,0.0,1.903935,2.0,1.0,1.885145,2.0,0.0,1.74565,2.0,19.0,1.0,0.374665
230,21.0,4.0,Home,Gloves,Angelina,Cabin,11.738480000000001,5.0,6.0,0.94996,place,object,person,1.0,9.938025,2.0,1.0,4.2824349999999995,1.0,1.0,2.64935,3.0,1.0,3.9566199999999996,1.0,1.0,1.677125,2.0,1.0,2.863645,2.0,11.0,1.0,0.61028
230,10.0,5.0,Work,Easel,Emma,Aquarium,8.65537,1.0,3.0,1.418455,object,place,person,1.0,10.69583,2.0,1.0,5.17847,4.0,0.0,3.3339300000000005,3.0,1.0,3.06964,1.0,1.0,3.087355,2.0,1.0,3.0227150000000003,1.0,14.0,1.0,0.42181
230,12.0,6.0,Studying,Trampoline,Ellen,Classroom,,4.0,6.0,1.27581,place,person,object,1.0,11.975635,4.0,1.0,1.163645,4.0,1.0,1.3468,4.0,1.0,3.4247900000000002,2.0,1.0,2.0491200000000003,2.0,1.0,2.3039400000000003,1.0,16.0,1.0,0.5025149999999999
230,8.0,7.0,Competition,Goggles,Scarlett,Savannah,10.030775,13.0,6.0,1.529585,place,object,person,1.0,4.97892,1.0,1.0,2.6449599999999998,1.0,1.0,2.6726799999999997,4.0,1.0,1.9139400000000002,1.0,1.0,1.574075,2.0,1.0,1.554535,1.0,10.0,1.0,1.30369
230,17.0,8.0,Summer,Puppy,Sandra,Circus,7.9279649999999995,2.0,2.0,1.467555,object,person,place,0.0,15.083735,2.0,1.0,9.756895,4.0,1.0,3.228415,1.0,1.0,3.682405,2.0,1.0,1.5810600000000001,1.0,1.0,4.921465,2.0,22.0,1.0,0.40763
230,13.0,9.0,Errands,Stopwatch,Tom,Icerink,8.29462,12.0,4.0,1.5241,place,object,person,1.0,11.04802,3.0,1.0,2.971015,4.0,1.0,2.871855,1.0,0.0,1.4631,2.0,1.0,1.015945,1.0,1.0,1.925545,2.0,21.0,1.0,0.3965
230,20.0,10.0,Friends,Backpack,Chris,Bridge,7.899085,19.0,5.0,1.087925,object,place,person,1.0,7.65813,3.0,1.0,6.461805,4.0,1.0,1.35955,2.0,1.0,2.588015,2.0,1.0,1.165075,1.0,1.0,1.4066450000000001,1.0,17.0,1.0,0.5329050000000001
230,19.0,11.0,Vacation,Wine,Julia,Pool,7.63408,7.0,4.0,1.475455,person,object,place,0.0,6.977519999999999,2.0,0.0,2.66725,1.0,1.0,2.78185,2.0,0.0,3.688535,1.0,1.0,1.90615,1.0,1.0,1.12463,2.0,15.0,1.0,0.673415
230,22.0,12.0,Travel,Computer,George,Field,8.77332,8.0,4.0,1.380865,object,person,place,1.0,5.25367,4.0,1.0,1.1846450000000002,1.0,0.0,4.0957550000000005,2.0,1.0,2.630605,1.0,1.0,1.6962099999999998,2.0,0.0,1.220815,1.0,3.0,1.0,0.55852
230,18.0,13.0,DIY,Chair,Beyonce,Wine Cellar,,15.0,6.0,1.4546700000000001,person,object,place,1.0,2.35324,2.0,1.0,2.43435,3.0,1.0,3.65099,4.0,1.0,4.76474,2.0,1.0,3.848265,1.0,1.0,1.9157849999999998,1.0,1.0,1.0,0.58134
230,14.0,14.0,Relaxing,Stroller,Steve,Ski Slope,10.290255,10.0,6.0,1.8476150000000002,place,person,object,1.0,7.12067,1.0,1.0,0.7323149999999999,1.0,1.0,3.7046,2.0,1.0,4.8013900000000005,2.0,1.0,1.415435,2.0,0.0,2.0878400000000004,2.0,18.0,1.0,1.0789799999999998
230,16.0,15.0,Winter,Record,Samuel,Dining Room,,18.0,4.0,1.61794,place,person,object,1.0,8.30001,2.0,1.0,8.125905,2.0,1.0,2.31157,3.0,1.0,3.193865,1.0,1.0,0.86464,1.0,1.0,1.52148,1.0,12.0,1.0,0.45931000000000005
230,3.0,16.0,Music,Bike,Halle,Lighthouse,6.4393400000000005,6.0,6.0,1.58345,person,place,object,1.0,10.18646,4.0,1.0,2.97371,1.0,1.0,2.560835,1.0,1.0,3.18914,2.0,1.0,2.17096,2.0,1.0,2.09317,2.0,6.0,1.0,0.487835
230,2.0,17.0,Volunteer,Flowers,Jennifer,Waterfall,8.501125,21.0,4.0,1.26431,person,place,object,1.0,7.253985000000001,1.0,1.0,2.144625,3.0,1.0,3.716525,4.0,1.0,3.7379949999999997,2.0,1.0,0.825865,1.0,1.0,2.9395,1.0,9.0,1.0,0.57494
230,1.0,18.0,Date,Pitcher,Reese,Studio,6.24024,14.0,2.0,1.37227,person,place,object,1.0,14.568755,3.0,0.0,5.055615,1.0,1.0,5.99149,2.0,1.0,4.214955000000001,1.0,1.0,1.938345,2.0,1.0,3.18083,2.0,5.0,1.0,0.47531999999999996
230,9.0,19.0,Shopping,Duster,Robert,Kitchen,,11.0,4.0,1.370685,place,object,person,1.0,10.423245,4.0,1.0,4.43507,2.0,1.0,2.346955,1.0,0.0,2.87731,1.0,1.0,0.8276899999999999,1.0,1.0,1.99816,1.0,0.0,1.0,3.09423
230,24.0,20.0,Family,Extinguisher,Ryan,Basketball,6.7385649999999995,17.0,4.0,1.2375200000000002,person,place,object,1.0,7.199745,4.0,1.0,5.87901,2.0,1.0,3.66123,3.0,1.0,2.7335,1.0,1.0,1.1540549999999998,1.0,1.0,0.916665,2.0,13.0,1.0,0.38105
230,6.0,21.0,Sightseeing,Ladder,Adam,Beach,6.360875,16.0,4.0,1.295685,object,place,person,1.0,4.496735,2.0,1.0,2.5686400000000003,1.0,1.0,3.9951849999999998,3.0,1.0,1.67536,2.0,1.0,1.29287,2.0,1.0,2.57671,2.0,23.0,1.0,0.299725
230,23.0,22.0,Eating,Hammock,Brad,Restaurant,6.49849,9.0,4.0,1.144195,person,object,place,1.0,15.029395000000001,1.0,1.0,3.5453449999999997,3.0,1.0,5.16556,3.0,1.0,2.093285,1.0,1.0,0.8624350000000001,2.0,1.0,2.373015,2.0,20.0,1.0,0.5340600000000001
230,11.0,23.0,Games,Binoculars,Leonardo,Lake,6.297594999999999,0.0,5.0,2.149925,object,place,person,1.0,3.86891,3.0,1.0,3.3828650000000002,2.0,1.0,2.157405,2.0,1.0,3.2730349999999997,1.0,1.0,2.783715,1.0,1.0,1.7028849999999998,2.0,7.0,1.0,0.45558000000000004
