participant,event_id,encoding.thisN,theme,object_label,person_label,place_label,resp_encSpace.rt,retrieval.thisN,resp_ret_vividness.keys,resp_ret_vividness.rt,q1_type,q2_type,q3_type,resp_gistmem1.corr,resp_gistmem1.rt,resp_gistmem1.keys,resp_gistmem2.corr,resp_gistmem2.rt,resp_gistmem2.keys,resp_gistmem3.corr,resp_gistmem3.rt,resp_gistmem3.keys,resp_detailmem1.corr,resp_detailmem1.rt,resp_detailmem1.keys,resp_detailmem2.corr,resp_detailmem2.rt,resp_detailmem2.keys,resp_detailmem3.corr,resp_detailmem3.rt,resp_detailmem3.keys,familiarity.thisN,resp_facefam.keys,resp_facefam.rt
238,22.0,0.0,Travel,Computer,George,Field,13.96481,11.0,1.0,0.546535,object,person,place,0.0,5.354425,2.0,1.0,3.83616,1.0,1.0,4.446665,1.0,1.0,1.0505799999999998,1.0,1.0,1.11243,2.0,1.0,1.45946,2.0,20.0,1.0,0.3266
238,12.0,1.0,Studying,Trampoline,Ellen,Classroom,13.798370000000002,20.0,1.0,0.16614500000000001,place,person,object,1.0,3.591535,4.0,1.0,4.461875,4.0,1.0,2.50461,4.0,1.0,1.87348,2.0,1.0,1.64252,2.0,1.0,0.778605,1.0,10.0,1.0,0.274555
238,8.0,2.0,Competition,Goggles,Scarlett,Savannah,8.74583,12.0,3.0,0.799405,place,object,person,1.0,6.33921,1.0,1.0,0.983195,1.0,1.0,1.6641849999999998,4.0,1.0,1.2961049999999998,1.0,1.0,1.883625,2.0,1.0,2.53877,1.0,15.0,1.0,0.35815
238,16.0,3.0,Winter,Record,Samuel,Dining Room,12.93215,4.0,2.0,0.60946,place,person,object,1.0,7.66431,2.0,1.0,4.18086,2.0,1.0,3.0390200000000003,3.0,1.0,1.20187,1.0,1.0,1.074155,1.0,1.0,1.1098700000000001,1.0,3.0,1.0,0.22329000000000002
238,17.0,4.0,Summer,Puppy,Sandra,Circus,13.510864999999999,17.0,2.0,0.56781,object,person,place,1.0,8.34324,4.0,1.0,2.90752,4.0,1.0,0.595925,1.0,1.0,1.3627,2.0,1.0,2.42644,1.0,1.0,1.8752950000000002,2.0,12.0,1.0,0.31209499999999996
238,3.0,5.0,Music,Bike,Halle,Lighthouse,11.68083,19.0,1.0,0.406925,person,place,object,0.0,3.9656849999999997,2.0,0.0,3.682435,3.0,1.0,2.1141,1.0,1.0,1.200545,2.0,1.0,1.89905,2.0,0.0,1.07158,1.0,11.0,1.0,0.25299499999999997
238,2.0,6.0,Volunteer,Flowers,Jennifer,Waterfall,13.074835,15.0,2.0,0.518975,person,place,object,1.0,5.8570199999999994,1.0,1.0,5.730535,3.0,1.0,1.8476099999999998,4.0,1.0,3.274325,2.0,1.0,1.34293,1.0,1.0,1.3066950000000002,1.0,8.0,1.0,0.18497
238,1.0,7.0,Date,Pitcher,Reese,Studio,10.438335,21.0,1.0,0.750855,person,place,object,0.0,8.442125,2.0,0.0,4.983615,1.0,1.0,4.941845,2.0,0.0,1.715975,2.0,0.0,1.493685,1.0,1.0,0.9809450000000001,2.0,17.0,1.0,0.27364
238,24.0,8.0,Family,Extinguisher,Ryan,Basketball,7.664219999999999,3.0,2.0,0.5574399999999999,person,place,object,1.0,7.689735000000001,4.0,1.0,3.82272,2.0,1.0,5.21247,3.0,0.0,2.125325,2.0,1.0,1.626105,1.0,0.0,1.674325,1.0,5.0,1.0,0.323525
238,10.0,9.0,Work,Easel,Emma,Aquarium,,2.0,1.0,0.7079449999999999,object,place,person,1.0,11.37934,2.0,1.0,5.8324300000000004,4.0,0.0,3.067295,2.0,1.0,1.209755,1.0,1.0,2.1505349999999996,2.0,1.0,1.3728200000000002,1.0,14.0,1.0,0.368825
238,4.0,10.0,Exercise,Beachball,Will,Casino,,9.0,1.0,0.38135,object,person,place,1.0,7.12017,1.0,0.0,3.9075050000000005,1.0,1.0,5.77688,2.0,0.0,0.789485,2.0,1.0,1.61874,2.0,1.0,1.12205,1.0,21.0,1.0,0.37075
238,9.0,11.0,Shopping,Duster,Robert,Kitchen,,16.0,1.0,0.43503000000000003,place,object,person,0.0,7.789125,3.0,0.0,5.245769999999999,4.0,0.0,3.3621300000000005,3.0,1.0,1.765655,2.0,0.0,1.029915,2.0,0.0,3.89017,2.0,18.0,1.0,0.37217
238,15.0,12.0,Celebration,Football,Meryl,Harbor,6.764455,8.0,2.0,0.5777800000000001,object,person,place,1.0,4.695485,1.0,1.0,6.245265,3.0,1.0,4.78739,4.0,1.0,1.334375,2.0,1.0,1.078455,1.0,1.0,2.12708,1.0,9.0,1.0,0.383475
238,13.0,13.0,Errands,Stopwatch,Tom,Icerink,7.081519999999999,0.0,3.0,1.8108,place,object,person,1.0,6.338545,3.0,1.0,3.4140900000000003,4.0,1.0,1.54433,1.0,1.0,2.839485,1.0,1.0,2.33356,1.0,1.0,2.020065,2.0,19.0,1.0,0.26995
238,11.0,14.0,Games,Binoculars,Leonardo,Lake,6.329994999999999,1.0,3.0,0.8823549999999999,object,place,person,1.0,6.387345,3.0,1.0,1.276525,2.0,1.0,1.18906,2.0,0.0,1.766375,2.0,1.0,2.58017,1.0,0.0,2.382945,1.0,1.0,1.0,0.18272
238,20.0,15.0,Friends,Backpack,Chris,Bridge,5.49224,22.0,2.0,1.426775,object,place,person,1.0,5.666885,3.0,0.0,6.816294999999999,3.0,1.0,3.19208,2.0,1.0,1.127335,2.0,1.0,0.9776299999999999,1.0,1.0,0.9324899999999999,1.0,2.0,1.0,0.48336
238,7.0,16.0,Art,Headphones,Denzel,Avenue,6.788435000000001,7.0,1.0,0.46415500000000004,person,object,place,0.0,7.800389999999999,3.0,1.0,1.694825,2.0,0.0,2.2649049999999997,2.0,1.0,1.30093,1.0,0.0,0.8961450000000001,1.0,1.0,1.54988,1.0,7.0,1.0,0.26669499999999996
238,14.0,17.0,Relaxing,Stroller,Steve,Ski Slope,6.9515199999999995,10.0,3.0,0.452255,place,person,object,1.0,3.926925,1.0,1.0,1.4885549999999999,1.0,1.0,1.0497100000000001,2.0,1.0,3.646975,2.0,1.0,1.5242799999999999,2.0,1.0,1.01134,1.0,16.0,1.0,0.211525
238,23.0,18.0,Eating,Hammock,Brad,Restaurant,3.9978050000000005,6.0,2.0,0.71212,person,object,place,1.0,8.040265,1.0,1.0,3.8460699999999997,3.0,1.0,1.06116,3.0,0.0,1.0603049999999998,2.0,0.0,1.8020349999999998,1.0,1.0,1.361595,2.0,4.0,1.0,0.17714000000000002
238,5.0,19.0,Party,Satchel,Anne,Bowling,2.888155,18.0,1.0,0.43786,place,person,object,1.0,4.973435,3.0,0.0,3.10518,2.0,1.0,5.543159999999999,1.0,0.0,2.0113849999999998,1.0,1.0,2.9601349999999997,1.0,0.0,1.131525,1.0,22.0,1.0,0.26481
238,19.0,20.0,Vacation,Wine,Julia,Pool,12.83445,5.0,1.0,0.808235,person,object,place,0.0,7.0026649999999995,2.0,0.0,2.96714,1.0,1.0,4.020055,2.0,1.0,1.3918700000000002,2.0,1.0,1.17651,1.0,0.0,2.347745,1.0,6.0,1.0,0.188195
238,6.0,21.0,Sightseeing,Ladder,Adam,Beach,5.00574,14.0,2.0,0.40004,object,place,person,1.0,6.885655,2.0,1.0,2.1258,1.0,1.0,1.3268950000000002,3.0,0.0,1.057685,1.0,0.0,1.21888,1.0,1.0,0.915625,2.0,13.0,1.0,0.311395
238,21.0,22.0,Home,Gloves,Angelina,Cabin,7.297085000000001,23.0,2.0,0.579625,place,object,person,1.0,3.5251,2.0,1.0,6.876325,1.0,1.0,5.353705000000001,3.0,1.0,2.6914,1.0,1.0,1.7820799999999999,2.0,1.0,2.67462,2.0,23.0,1.0,0.1849
238,18.0,23.0,DIY,Chair,Beyonce,Wine Cellar,3.57035,13.0,2.0,0.311025,person,object,place,1.0,4.13526,2.0,1.0,2.20457,3.0,1.0,1.70435,4.0,1.0,1.00355,2.0,0.0,1.480805,2.0,1.0,0.8658,1.0,0.0,1.0,1.632075
