participant,event_id,encoding.thisN,theme,object_label,person_label,place_label,resp_encSpace.rt,retrieval.thisN,resp_ret_vividness.keys,resp_ret_vividness.rt,q1_type,q2_type,q3_type,resp_gistmem1.corr,resp_gistmem1.rt,resp_gistmem1.keys,resp_gistmem2.corr,resp_gistmem2.rt,resp_gistmem2.keys,resp_gistmem3.corr,resp_gistmem3.rt,resp_gistmem3.keys,resp_detailmem1.corr,resp_detailmem1.rt,resp_detailmem1.keys,resp_detailmem2.corr,resp_detailmem2.rt,resp_detailmem2.keys,resp_detailmem3.corr,resp_detailmem3.rt,resp_detailmem3.keys,familiarity.thisN,resp_facefam.keys,resp_facefam.rt
239,24.0,0.0,Family,Extinguisher,Ryan,Basketball,,18.0,6.0,1.444315,person,place,object,1.0,9.365255,4.0,1.0,1.92337,2.0,1.0,2.1243950000000003,3.0,1.0,1.7737049999999999,1.0,1.0,7.594225,1.0,1.0,2.74847,2.0,0.0,1.0,17.444625
239,1.0,1.0,Date,Pitcher,Reese,Studio,,22.0,6.0,1.1047049999999998,person,place,object,1.0,12.310365,3.0,1.0,2.3088599999999997,3.0,1.0,2.32556,2.0,1.0,1.743275,1.0,1.0,6.27238,2.0,1.0,2.12546,2.0,7.0,1.0,1.378565
239,4.0,2.0,Exercise,Beachball,Will,Casino,,23.0,6.0,1.0752549999999998,object,person,place,1.0,14.903425,1.0,1.0,1.9571599999999998,2.0,1.0,2.17496,2.0,1.0,2.124925,1.0,1.0,2.13442,2.0,1.0,4.667815,1.0,10.0,1.0,1.037895
239,10.0,3.0,Work,Easel,Emma,Aquarium,,10.0,6.0,0.925675,object,place,person,1.0,9.603535,2.0,1.0,3.19274,4.0,1.0,3.094945,4.0,1.0,1.60994,1.0,1.0,3.36176,2.0,1.0,1.85723,1.0,21.0,1.0,0.772015
239,9.0,4.0,Shopping,Duster,Robert,Kitchen,10.470755,14.0,6.0,1.99092,place,object,person,1.0,20.9232,4.0,1.0,2.6433150000000003,2.0,1.0,2.359465,1.0,1.0,9.28333,2.0,1.0,2.575185,1.0,1.0,2.0973,1.0,23.0,1.0,0.7379100000000001
239,21.0,5.0,Home,Gloves,Angelina,Cabin,5.567655,16.0,6.0,1.204895,place,object,person,1.0,17.425685,2.0,1.0,1.7735599999999998,1.0,1.0,2.4457150000000003,3.0,1.0,3.0451200000000003,1.0,1.0,4.165575,2.0,1.0,2.92768,2.0,3.0,1.0,1.1553950000000002
239,23.0,6.0,Eating,Hammock,Brad,Restaurant,,17.0,6.0,1.3920299999999999,person,object,place,1.0,7.9452050000000005,1.0,1.0,3.32931,3.0,1.0,2.25858,3.0,1.0,2.8944400000000003,1.0,1.0,2.191855,2.0,1.0,3.4134900000000004,2.0,11.0,1.0,0.5857899999999999
239,16.0,7.0,Winter,Record,Samuel,Dining Room,3.144975,0.0,6.0,2.522875,place,person,object,1.0,17.7431,2.0,1.0,8.59705,2.0,1.0,4.532705,3.0,1.0,5.639365,1.0,1.0,2.37246,1.0,1.0,2.96095,1.0,16.0,1.0,1.00447
239,2.0,8.0,Volunteer,Flowers,Jennifer,Waterfall,,21.0,6.0,1.24041,person,place,object,1.0,34.062295,1.0,1.0,3.312245,3.0,1.0,2.44706,4.0,1.0,2.264465,2.0,1.0,1.8572549999999999,1.0,1.0,1.772205,1.0,22.0,1.0,0.688045
239,6.0,9.0,Sightseeing,Ladder,Adam,Beach,,1.0,3.0,2.47696,object,place,person,0.0,45.45619,4.0,1.0,23.903325,1.0,0.0,22.4987,2.0,1.0,15.456755,2.0,1.0,4.14914,2.0,1.0,2.641715,2.0,5.0,1.0,1.0208899999999999
239,8.0,10.0,Competition,Goggles,Scarlett,Savannah,,15.0,6.0,1.2216850000000001,place,object,person,1.0,7.942564999999999,1.0,1.0,2.4096,1.0,1.0,2.51209,4.0,1.0,3.751635,1.0,1.0,2.99662,2.0,1.0,2.090745,1.0,13.0,1.0,0.8545200000000001
239,14.0,11.0,Relaxing,Stroller,Steve,Ski Slope,,20.0,6.0,1.543615,place,person,object,1.0,10.364310000000001,1.0,1.0,1.84083,1.0,1.0,2.495445,2.0,1.0,4.683795,2.0,1.0,2.0211900000000003,2.0,1.0,2.25838,1.0,8.0,1.0,0.6698
239,11.0,12.0,Games,Binoculars,Leonardo,Lake,11.341510000000001,4.0,6.0,1.34111,object,place,person,1.0,12.47771,3.0,1.0,2.94636,2.0,1.0,2.1747,2.0,1.0,1.54227,1.0,1.0,5.61341,1.0,1.0,2.07492,2.0,14.0,1.0,0.48573999999999995
239,5.0,13.0,Party,Satchel,Anne,Bowling,,2.0,3.0,1.9409349999999999,place,person,object,0.0,36.93307,4.0,0.0,18.767325,2.0,0.0,26.10825,3.0,1.0,19.387065,2.0,1.0,2.3763799999999997,1.0,1.0,2.6421900000000003,2.0,17.0,1.0,0.7914100000000001
239,15.0,14.0,Celebration,Football,Meryl,Harbor,,6.0,6.0,1.326225,object,person,place,1.0,20.222825,1.0,1.0,2.3762,3.0,1.0,2.60977,4.0,1.0,1.97725,2.0,1.0,2.141305,1.0,1.0,2.838745,1.0,1.0,1.0,5.689625
239,3.0,15.0,Music,Bike,Halle,Lighthouse,,13.0,6.0,1.30413,person,place,object,1.0,12.711835,4.0,1.0,3.83386,1.0,1.0,1.91166,1.0,1.0,2.1985200000000003,2.0,1.0,5.135305000000001,2.0,1.0,2.760275,2.0,19.0,1.0,0.61965
239,7.0,16.0,Art,Headphones,Denzel,Avenue,4.366745,11.0,6.0,1.3386850000000001,person,object,place,1.0,13.99957,2.0,1.0,4.75055,2.0,1.0,2.1961,3.0,1.0,2.10336,1.0,1.0,2.14074,2.0,1.0,3.597125,1.0,9.0,1.0,2.92769
239,13.0,17.0,Errands,Stopwatch,Tom,Icerink,,12.0,6.0,1.021395,place,object,person,1.0,23.718695,3.0,1.0,3.8796,4.0,1.0,1.75682,1.0,1.0,2.9102099999999997,1.0,1.0,1.560585,1.0,1.0,1.74022,2.0,4.0,1.0,1.13848
239,12.0,18.0,Studying,Trampoline,Ellen,Classroom,,5.0,6.0,1.17377,place,person,object,1.0,7.26235,4.0,1.0,3.4628699999999997,4.0,1.0,4.90156,4.0,1.0,2.45926,2.0,1.0,2.52652,2.0,1.0,2.877755,1.0,12.0,1.0,0.9415100000000001
239,17.0,19.0,Summer,Puppy,Sandra,Circus,,7.0,6.0,1.275315,object,person,place,1.0,9.467075,4.0,1.0,2.0456950000000003,4.0,1.0,2.262395,1.0,1.0,1.90969,2.0,1.0,2.125165,1.0,1.0,4.033725,2.0,2.0,1.0,0.88775
239,18.0,20.0,DIY,Chair,Beyonce,Wine Cellar,,3.0,6.0,1.37224,person,object,place,1.0,11.724865,2.0,1.0,3.26463,3.0,1.0,6.760985000000001,4.0,1.0,3.847205,2.0,1.0,6.15693,1.0,1.0,4.248645,1.0,18.0,1.0,0.569525
239,19.0,21.0,Vacation,Wine,Julia,Pool,,9.0,6.0,1.339075,person,object,place,1.0,6.62265,3.0,1.0,2.192015,4.0,1.0,2.05798,2.0,1.0,2.008005,2.0,1.0,1.52295,1.0,1.0,4.036569999999999,2.0,6.0,1.0,1.6432849999999999
239,22.0,22.0,Travel,Computer,George,Field,,19.0,6.0,1.202805,object,person,place,1.0,8.647285,4.0,1.0,2.42592,1.0,1.0,1.968305,1.0,1.0,1.74017,1.0,1.0,2.040995,2.0,1.0,3.8140650000000003,2.0,20.0,1.0,0.589465
239,20.0,23.0,Friends,Backpack,Chris,Bridge,12.596745,8.0,6.0,1.10552,object,place,person,1.0,8.466225,3.0,1.0,3.382325,4.0,1.0,2.1243950000000003,2.0,1.0,3.48,2.0,1.0,4.148334999999999,1.0,1.0,1.787625,1.0,15.0,1.0,0.38883
