participant,event_id,encoding.thisN,theme,object_label,person_label,place_label,resp_encSpace.rt,retrieval.thisN,resp_ret_vividness.keys,resp_ret_vividness.rt,q1_type,q2_type,q3_type,resp_gistmem1.corr,resp_gistmem1.rt,resp_gistmem1.keys,resp_gistmem2.corr,resp_gistmem2.rt,resp_gistmem2.keys,resp_gistmem3.corr,resp_gistmem3.rt,resp_gistmem3.keys,resp_detailmem1.corr,resp_detailmem1.rt,resp_detailmem1.keys,resp_detailmem2.corr,resp_detailmem2.rt,resp_detailmem2.keys,resp_detailmem3.corr,resp_detailmem3.rt,resp_detailmem3.keys,familiarity.thisN,resp_facefam.keys,resp_facefam.rt
241,12.0,0.0,Studying,Trampoline,Ellen,Classroom,,23.0,5.0,1.358775,place,person,object,0.0,1.1621,2.0,0.0,1.239215001,3.0,0.0,1.197985,2.0,0.0,1.7713700000000001,1.0,1.0,2.61568,2.0,0.0,2.2555650000000003,2.0,18.0,1.0,0.752315
241,17.0,1.0,Summer,Puppy,Sandra,Circus,7.263195001000001,5.0,4.0,1.690875,object,person,place,0.0,3.849995,3.0,1.0,5.852609999999999,4.0,0.0,4.548140001,3.0,1.0,2.807875,2.0,0.0,2.567875,2.0,0.0,2.3464150000000004,1.0,9.0,1.0,1.436334999
241,23.0,2.0,Eating,Hammock,Brad,Restaurant,8.843810000000001,16.0,4.0,1.28821,person,object,place,0.0,3.070005001,4.0,0.0,1.4753100000000001,2.0,0.0,1.22,2.0,1.0,2.2189900000000002,1.0,1.0,1.673375,2.0,1.0,1.87792,2.0,13.0,1.0,0.9021399999999999
241,7.0,3.0,Art,Headphones,Denzel,Avenue,4.689590001,19.0,5.0,1.20656,person,object,place,0.0,2.9126999989999995,3.0,1.0,0.96593,2.0,1.0,0.797205,3.0,1.0,2.28916,1.0,1.0,1.2774299999999998,2.0,1.0,1.9827549999999998,1.0,2.0,1.0,1.928235
241,11.0,4.0,Games,Binoculars,Leonardo,Lake,12.06129,15.0,5.0,1.414895,object,place,person,1.0,4.25654,3.0,1.0,1.294325,2.0,0.0,1.07304,3.0,1.0,2.2073749990000002,1.0,1.0,1.40204,1.0,0.0,2.84556,1.0,20.0,1.0,1.0028700000000002
241,8.0,5.0,Competition,Goggles,Scarlett,Savannah,12.280805,6.0,4.0,1.637765,place,object,person,0.0,2.609305,4.0,0.0,3.632595,2.0,0.0,1.7477049999999998,2.0,1.0,2.8261600010000003,1.0,1.0,2.3925,2.0,1.0,1.994045001,1.0,11.0,1.0,0.86119
241,4.0,6.0,Exercise,Beachball,Will,Casino,,22.0,6.0,1.743205001,object,person,place,0.0,1.62907,2.0,1.0,2.29299,2.0,1.0,1.773604999,2.0,0.0,2.252545,2.0,1.0,2.39131,2.0,1.0,2.262355,1.0,5.0,1.0,1.04264
241,6.0,7.0,Sightseeing,Ladder,Adam,Beach,,14.0,5.0,1.294725,object,place,person,0.0,1.4528,1.0,0.0,0.99897,2.0,0.0,0.8276450000000001,1.0,0.0,1.445979999,1.0,0.0,1.488650001,1.0,1.0,2.4404,2.0,3.0,1.0,1.2887600000000001
241,19.0,8.0,Vacation,Wine,Julia,Pool,7.149715,10.0,4.0,1.308565,person,object,place,0.0,1.1672049999999998,2.0,0.0,1.201475,1.0,1.0,0.9893549999999999,2.0,1.0,3.3724300000000005,2.0,1.0,2.029955001,1.0,0.0,1.4005100000000001,1.0,23.0,1.0,1.515485
241,13.0,9.0,Errands,Stopwatch,Tom,Icerink,11.575585,20.0,4.0,1.3980299999999999,place,object,person,1.0,1.9771349999999999,3.0,0.0,3.82051,1.0,0.0,2.5230799999999998,2.0,1.0,1.7739349999999998,1.0,1.0,1.47605,1.0,0.0,3.920875,1.0,7.0,1.0,0.770375
241,3.0,10.0,Music,Bike,Halle,Lighthouse,,9.0,4.0,1.3751200000000001,person,place,object,0.0,1.678195,2.0,0.0,1.292545,2.0,0.0,1.197375,3.0,1.0,1.95412,2.0,0.0,2.054185,1.0,1.0,1.217399999,2.0,10.0,1.0,1.49631
241,20.0,11.0,Friends,Backpack,Chris,Bridge,6.78822,18.0,5.0,1.51309,object,place,person,1.0,2.67919,3.0,0.0,1.021445001,2.0,1.0,2.420360001,2.0,1.0,1.989680001,2.0,1.0,2.76667,1.0,1.0,1.50678,1.0,4.0,1.0,1.17154
241,14.0,12.0,Relaxing,Stroller,Steve,Ski Slope,,17.0,5.0,1.698205,place,person,object,0.0,2.193645,2.0,1.0,3.115355,1.0,0.0,2.437825,1.0,1.0,3.11945,2.0,1.0,2.53057,2.0,1.0,2.11497,1.0,17.0,2.0,1.58364
241,9.0,13.0,Shopping,Duster,Robert,Kitchen,,0.0,4.0,5.56516,place,object,person,0.0,5.5543949999999995,1.0,0.0,3.8816949999999997,1.0,0.0,9.750845,3.0,1.0,6.679214999999999,2.0,0.0,4.87553,2.0,1.0,3.461135,1.0,0.0,1.0,1.88002
241,16.0,14.0,Winter,Record,Samuel,Dining Room,1.5728600000000001,21.0,5.0,1.701555,place,person,object,0.0,1.47953,3.0,0.0,1.289815,3.0,0.0,0.85575,2.0,1.0,2.48608,1.0,1.0,2.2385,1.0,1.0,1.868515001,1.0,1.0,1.0,1.23663
241,5.0,15.0,Party,Satchel,Anne,Bowling,,4.0,5.0,1.55978,place,person,object,0.0,3.376695,2.0,0.0,1.69795,2.0,0.0,3.428805,3.0,0.0,2.491535,1.0,1.0,2.5188299990000003,1.0,0.0,1.8648650000000002,1.0,16.0,1.0,0.9232899999999999
241,15.0,16.0,Celebration,Football,Meryl,Harbor,4.583495,3.0,4.0,1.540335,object,person,place,1.0,2.157400001,1.0,0.0,3.3022199999999997,4.0,0.0,5.70926,1.0,0.0,2.47682,1.0,0.0,2.64016,2.0,1.0,1.744575,1.0,21.0,3.0,1.476205
241,22.0,17.0,Travel,Computer,George,Field,,2.0,4.0,2.3134200000000003,object,person,place,1.0,3.894965,4.0,1.0,5.838705,1.0,0.0,2.404075,2.0,1.0,4.928465,1.0,0.0,4.0985949999999995,1.0,0.0,2.60586,1.0,19.0,1.0,1.059065
241,24.0,18.0,Family,Extinguisher,Ryan,Basketball,4.225365,12.0,5.0,1.35273,person,place,object,0.0,1.45126,2.0,1.0,1.890005,2.0,0.0,1.017735,1.0,1.0,2.475225,1.0,0.0,2.2057,2.0,0.0,1.814619999,1.0,6.0,1.0,0.889660001
241,10.0,19.0,Work,Easel,Emma,Aquarium,,8.0,4.0,1.733984999,object,place,person,0.0,3.50561,3.0,0.0,1.634515001,2.0,0.0,2.33312,3.0,0.0,1.91662,2.0,0.0,1.81623,1.0,1.0,1.7709099990000001,1.0,15.0,1.0,0.910484999
241,2.0,20.0,Volunteer,Flowers,Jennifer,Waterfall,,7.0,5.0,1.460639999,person,place,object,0.0,1.740535,2.0,1.0,3.78556,3.0,1.0,3.414595,4.0,0.0,2.236494999,1.0,1.0,2.166925,1.0,1.0,1.712505001,1.0,14.0,1.0,1.10456
241,18.0,21.0,DIY,Chair,Beyonce,Wine Cellar,1.09293,1.0,5.0,2.56187,person,object,place,0.0,10.909895,4.0,0.0,4.739895,2.0,0.0,2.8729850010000004,1.0,1.0,4.98784,2.0,1.0,1.901345,1.0,1.0,2.20253,1.0,8.0,2.0,3.08461
241,21.0,22.0,Home,Gloves,Angelina,Cabin,,11.0,5.0,1.542204999,place,object,person,0.0,2.535004999,1.0,0.0,2.634079999,4.0,1.0,1.6981449990000002,3.0,1.0,1.95933,1.0,0.0,2.5358549999999997,1.0,0.0,2.37672,1.0,12.0,1.0,0.7605350000000001
241,1.0,23.0,Date,Pitcher,Reese,Studio,,13.0,4.0,1.3236299999999999,person,place,object,0.0,1.352750001,2.0,0.0,1.233375,2.0,0.0,0.946599999,3.0,1.0,2.186609999,1.0,0.0,2.255475,1.0,0.0,1.7581200000000001,1.0,22.0,1.0,1.136485
